ts x y z vx vy vz ax ay az ox oy oz ow accel gyro
1625518950467.2297 0.0 0.0 0.0 0.0 0.0 0.0 0.0 0.0 0.0 -0.030183833092451096 -0.0005228715017437935 -0.0053832996636629105 0.9995297193527222 "x: -0.0382459, y: 10.0396, z: -0.688427" "x: 0.00426119, y: -0.00426119, z: 0.0010653"
1625518950577.1453 -3.519664460327476e-05 -0.0010856720618903637 0.0002656003925949335 -0.0007228737813420594 -0.025249864906072617 0.009337442927062511 -0.011145480908453465 -0.3218671977519989 0.08355880528688431 -0.02568945847451687 -0.00024576857686042786 -0.004751729313284159 0.9996587038040161 "x: -0.0382459, y: 10.0396, z: -0.688427" "x: 0.00213059, y: 0.00319589, z: -0.0010653"
1625518950677.0686 -1.3782512723992113e-05 -0.0010873280698433518 0.000236619365750812 -0.0004094500036444515 -0.023890359327197075 0.005902279168367386 -0.007834923453629017 -0.31261390447616577 0.016240794211626053 -0.028026429936289787 -0.00023424661776516587 -0.004928993992507458 0.999595046043396 "x: -0.0382459, y: 10.0396, z: -0.688427" "x: -0.0010653, y: 0.0010653, z: -0.00213059"
1625518950776.9917 -7.6139917837281246e-06 -0.0008095864905044436 -0.00018802174599841237 -0.0002683272468857467 -0.01647076942026615 -0.0010141429957002401 -0.004049024544656277 -0.19217410683631897 0.006834262050688267 -0.02938743680715561 -0.0001797102886484936 -0.005083533935248852 0.999555230140686 "x: -0.0382459, y: 10.0587, z: -0.688427" "x: -0.00213059, y: 0.00426119, z: 0.00319589"
1625518950881.9114 3.2916836062213406e-05 -0.0004115366318728775 -0.0002037169469986111 0.0003826687461696565 -0.012701663188636303 0.0009871780639514327 -0.0023236232809722424 -0.2649429142475128 0.012332256883382797 -0.029552463442087173 -0.00010309878416592255 -0.005196348298341036 0.9995497465133667 "x: -0.0382459, y: 10.0587, z: -0.70755" "x: 0, y: 0.00426119, z: -0.0010653"
1625518950982.022 -2.1722684323322028e-05 -0.0004348563961684704 -0.0003115192521363497 -0.0006008869968354702 -0.013880115933716297 -0.0002342713123653084 -0.0029590963385999203 -0.2698436379432678 0.04782569408416748 -0.029796365648508072 -0.00011115893721580505 -0.00514447083696723 0.999542772769928 "x: -0.0382459, y: 10.0396, z: -0.688427" "x: 0.00426119, y: 0.00426119, z: -0.0010653"
1625518951081.9453 -0.00025727570755407214 -0.0005909749306738377 -0.0003782923158723861 -0.00233947834931314 -0.014717173762619495 -0.0005010651657357812 -0.004986244719475508 -0.24595019221305847 -0.004149050917476416 -0.029834559187293053 -0.0001056179971783422 -0.0050421711057424545 0.9995421767234802 "x: -0.0382459, y: 10.0396, z: -0.70755" "x: 0, y: 0.00213059, z: 0.00213059"
1625518951181.869 -0.0002699672768358141 -0.0006061673630028963 -0.0003895560803357512 -0.0008304454968310893 -0.015448484569787979 0.001554784830659628 -0.0016619545640423894 -0.2683286666870117 0.03180081769824028 -0.02986159548163414 -0.00011266881483606994 -0.005214320961385965 0.9995404481887817 "x: -0.0382459, y: 10.0587, z: -0.688427" "x: 0.00426119, y: 0.00319589, z: 0"
1625518951286.788 -0.00012379148392938077 -0.0006833186489529908 -0.0003261583624407649 0.0011546912137418985 -0.01726541295647621 0.0020917796064168215 0.0006687961285933852 -0.27883148193359375 0.009435193613171577 -0.029784495010972023 -0.0001207951208925806 -0.00535939447581768 0.9995419979095459 "x: -0.0382459, y: 10.0396, z: -0.70755" "x: 0.00639178, y: -0.00426119, z: -0.00213059"
1625518951386.712 1.9592333046603017e-05 -0.0007771501550450921 -0.00028996754554100335 0.0013514973688870668 -0.01845448650419712 0.0011103242868557572 -0.01900152675807476 -0.347750186920166 -0.06933196634054184 -0.02991786226630211 -0.00011425456614233553 -0.005397577304393053 0.9995378255844116 "x: -0.019123, y: 10.0396, z: -0.70755" "x: 0.0010653, y: 0.0010653, z: 0.00319589"
1625518951486.6282 -0.00016872900596354157 -0.0006662593223154545 -9.997289453167468e-06 -0.0006171637214720249 -0.015664637088775635 0.005260817240923643 -0.0003845950704999268 -0.2857801020145416 0.10429257899522781 -0.029868515208363533 -5.11312136950437e-05 -0.005289802327752113 0.9995399117469788 "x: -0.0382459, y: 10.0396, z: -0.70755" "x: -0.00213059, y: 0.0010653, z: 0"
1625518951591.5476 -0.00033169484231621027 -0.0007012829300947487 -0.0005948017351329327 -0.0008374331519007683 -0.01566157303750515 -0.0023675630800426006 -0.0007505308603867888 -0.20277029275894165 0.004551110789179802 -0.030158555135130882 -9.398498150403611e-06 -0.005239247344434261 0.9995313882827759 "x: -0.0382459, y: 10.0396, z: -0.70755" "x: -0.00426119, y: 0.0010653, z: 0.00213059"
1625518951691.4712 -0.0002630781091284007 -0.0010219728574156761 -0.0008562778239138424 0.00046248966827988625 -0.020272856578230858 -0.0023918121587485075 -0.0006436476251110435 -0.3260304629802704 -0.049420349299907684 -0.030087973922491074 -2.6738885026134085e-06 -0.005322274751961231 0.9995331168174744 "x: -0.0382459, y: 10.0396, z: -0.688427" "x: 0.00426119, y: -0.0010653, z: 0.0010653"
1625518951791.3945 -0.0002865568967536092 -0.0006850940408185124 -0.0004799051966983825 0.0006538912421092391 -0.014455899596214294 0.0030829214956611395 0.0001417094754287973 -0.2455463707447052 -0.04970435053110123 -0.029965989291667938 -5.277098171063699e-05 -0.00533406063914299 0.9995367527008057 "x: -0.0382459, y: 10.0396, z: -0.688427" "x: 0.0010653, y: 0.0010653, z: 0.00319589"
1625518951891.318 -0.00016516588220838457 -0.0007997597567737103 -8.973347576102242e-05 0.0007695355452597141 -0.017823046073317528 0.004199860151857138 0.0011939204996451735 -0.25300973653793335 0.01991460658609867 -0.029993388801813126 -3.554327122401446e-05 -0.005376320332288742 0.9995356202125549 "x: -0.0382459, y: 10.0396, z: -0.70755" "x: 0.00213059, y: -0.00426119, z: -0.0010653"
1625518951996.3965 -0.000161723219207488 -0.0008144592284224927 -0.00043527790694497526 0.00011952305067097768 -0.017787467688322067 7.845915388315916e-05 0.00017361452046316117 -0.27644824981689453 -0.08674075454473495 -0.0301987137645483 -5.828492794535123e-05 -0.005351500120013952 0.9995296597480774 "x: -0.0382459, y: 10.0396, z: -0.688427" "x: 0.0010653, y: 0, z: -0.0010653"
1625518952096.32 -0.00024073295935522765 -0.0008101910934783518 -0.0004232722276356071 -0.0009396555833518505 -0.01707775890827179 -0.001931453007273376 9.19870799407363e-05 -0.24783821403980255 0.005511477589607239 -0.03024899587035179 -6.334281351882964e-05 -0.0052996003068983555 0.9995283484458923 "x: -0.0382459, y: 10.0587, z: -0.688427" "x: 0, y: 0, z: 0.0010653"
1625518952196.2434 -0.0001445337984478101 -0.0008895340724848211 -0.00023662175226490945 0.0011505135335028172 -0.017208728939294815 0.0025439823511987925 0.0012685864930972457 -0.22628384828567505 0.05483628064393997 -0.030231626704335213 -3.73350121662952e-05 -0.005344117991626263 0.999528706073761 "x: -0.0382459, y: 10.0587, z: -0.688427" "x: 0.00213059, y: 0.00213059, z: 0.0010653"
1625518952296.167 -0.00019657942175399512 -0.0010125552071258426 -0.0008986068423837423 -8.694837015355006e-05 -0.021152637898921967 -0.005991997197270393 -0.0009006231557577848 -0.28799593448638916 0.036985091865062714 -0.030441105365753174 -3.3907599572557956e-05 -0.005278017371892929 0.9995226860046387 "x: -0.0382459, y: 10.0396, z: -0.70755" "x: 0.00213059, y: 0.00426119, z: 0.00426119"
1625518952401.087 -0.0004460157942958176 -0.0009277361677959561 -0.00031910615507513285 -0.0017199653666466475 -0.019357025623321533 0.0051819076761603355 -0.0017516661901026964 -0.29881376028060913 0.013827763497829437 -0.030192574486136436 -7.077168265823275e-05 -0.005238980520516634 0.9995304346084595 "x: -0.0382459, y: 10.0396, z: -0.70755" "x: 0.00319589, y: 0.00532648, z: -0.00319589"
1625518952501.0103 -0.00029510448803193867 -0.0009264997788704932 -0.0007450308185070753 0.0001625799632165581 -0.016079794615507126 -0.0006103399209678173 0.0008153379312716424 -0.17171721160411835 0.07177551090717316 -0.030380599200725555 -0.00011967114551225677 -0.005292493849992752 0.9995244145393372 "x: -0.0382459, y: 10.0587, z: -0.688427" "x: 0.0010653, y: 0.00319589, z: 0.0010653"
1625518952600.9336 -0.00034156470792368054 -0.0008236007415689528 -0.000226293079322204 -0.00014851744344923645 -0.01820530742406845 0.005372312851250172 -0.0014298459282144904 -0.301918625831604 -0.02955019287765026 -0.030203964561223984 -7.985658157849684e-05 -0.005272892769426107 0.9995298981666565 "x: -0.0382459, y: 10.0587, z: -0.70755" "x: 0.00319589, y: 0.0010653, z: 0.00319589"
1625518952705.8535 -6.145235602161847e-06 -0.0009248097194358706 6.505419878521934e-05 0.0023033081088215113 -0.018246136605739594 0.006917445454746485 0.0007006859523244202 -0.22427202761173248 0.02084367349743843 -0.03029772825539112 -0.0001318449358223006 -0.0053432234562933445 0.9995266199111938 "x: -0.0382459, y: 10.0587, z: -0.70755" "x: -0.00532648, y: 0.00319589, z: -0.0010653"
1625518952805.777 -0.0001592242915648967 -0.0008256743894889951 0.00015004913439042866 5.669400707120076e-05 -0.017301924526691437 0.003381500719115138 -0.0017323457868769765 -0.2379106730222702 -0.02272181585431099 -0.03030685894191265 -0.00012883299496024847 -0.005202809814363718 0.999527096748352 "x: -0.0573689, y: 10.0587, z: -0.688427" "x: 0.00426119, y: -0.00319589, z: 0.00426119"
1625518952905.7012 -0.0005355934263207018 -0.0008173841051757336 -0.0007146084681153297 -0.0026882861275225878 -0.01681513898074627 -0.0031529376283288 -0.0023312175180763006 -0.20272743701934814 0.04169820249080658 -0.030458366498351097 -0.00011786172399297357 -0.005166044924408197 0.9995226860046387 "x: -0.0382459, y: 10.0396, z: -0.70755" "x: -0.0010653, y: 0.00426119, z: 0"
1625518953005.6243 -0.0001040670758811757 -0.0009782698471099138 -0.0003346945741213858 0.0019105664687231183 -0.02045002579689026 0.0010119068901985884 -0.001049787038937211 -0.2372797727584839 0.011821052990853786 -0.03043532557785511 -0.0001280873257201165 -0.005253210663795471 0.9995229244232178 "x: -0.0382459, y: 10.0587, z: -0.70755" "x: 0.0010653, y: 0.00319589, z: -0.00213059"
1625518953105.548 -0.00019821127352770418 -0.0008850882877595723 -0.00029808757244609296 0.0006571364356204867 -0.019634351134300232 0.0008961435523815453 -0.003280694130808115 -0.28481918573379517 -0.004853782244026661 -0.030442234128713608 -0.00015431988867931068 -0.005177867598831654 0.9995231032371521 "x: -0.0382459, y: 10.0396, z: -0.726673" "x: -0.0010653, y: 0.00213059, z: 0.0010653"
1625518953210.468 -0.00014174160605762154 -0.0010058920597657561 -0.00013055231829639524 0.0005345496465452015 -0.020549530163407326 0.001439990010112524 -0.0028691929765045643 -0.2381993681192398 0.04151701554656029 -0.030429644510149956 -0.00018654191808309406 -0.005152361001819372 0.9995236396789551 "x: -0.0382459, y: 10.0396, z: -0.70755" "x: 0.00213059, y: 0.0010653, z: 0"
1625518953310.3916 -0.0003525945357978344 -0.0009248637361451983 -0.0004242653667461127 -0.000585745379794389 -0.01998342201113701 -0.0004029158444609493 -0.0035846978425979614 -0.28603866696357727 -0.02951572649180889 -0.030557403340935707 -0.0001538239885121584 -0.005159242078661919 0.9995196461677551 "x: -0.0382459, y: 10.0396, z: -0.70755" "x: -0.0010653, y: 0.00426119, z: 0.00213059"
1625518953410.3154 -0.00012189168046461418 -0.0009665472316555679 -0.00022716604871675372 0.0009158433531410992 -0.019016359001398087 0.001180542167276144 -0.001795788761228323 -0.1839059591293335 0.014990439638495445 -0.030540237203240395 -0.00012199897901155055 -0.005188236944377422 0.9995200634002686 "x: -0.0382459, y: 10.0396, z: -0.70755" "x: -0.0010653, y: 0.00426119, z: 0"
1625518953510.239 -0.00021647238463629037 -0.0010912367142736912 -0.00046710140304639935 -9.549041715217754e-05 -0.02067820355296135 -0.0016450934344902635 -0.0023634424433112144 -0.18159624934196472 -0.07100918143987656 -0.030614154413342476 -0.00010963006934616715 -0.0051810587756335735 0.9995178580284119 "x: -0.0382459, y: 10.0396, z: -0.726673" "x: 0.0010653, y: 0.00426119, z: 0.00213059"
1625518953615.159 -0.00016689910262357444 -0.0010284094605594873 -0.0002990259090438485 0.0006849298952147365 -0.020486248657107353 0.0014950871700420976 -0.0016636790242046118 -0.2134913206100464 0.050038181245326996 -0.03061603009700775 -0.00018326261488255113 -0.005213207099586725 0.9995176792144775 "x: -0.0382459, y: 10.0396, z: -0.70755" "x: -0.00213059, y: 0.00639178, z: 0.00426119"
1625518953715.0828 -0.0002453431661706418 -0.0005150822689756751 -0.00035982823465019464 0.00035856844624504447 -0.016032103449106216 -0.0004896834143437445 -0.001784894848242402 -0.28200966119766235 0.0026579219847917557 -0.030677752569317818 -0.0001409111573593691 -0.005252144765108824 0.9995155930519104 "x: -0.0382459, y: 10.0587, z: -0.688427" "x: 0.0010653, y: 0.00532648, z: 0.0010653"
1625518953815.0063 -0.00045530893839895725 -0.0004105150292161852 -0.0003899727307725698 -0.0004621570697054267 -0.014024614356458187 3.91243738704361e-05 0.01638188399374485 -0.2444697916507721 0.010075035504996777 -0.03066723421216011 -0.00011875204654643312 -0.005175207741558552 0.9995163083076477 "x: -0.0573689, y: 10.0396, z: -0.70755" "x: 0.0010653, y: 0.00532648, z: 0.00532648"
1625518953914.9302 -0.00040379996062256396 -0.0004170949978288263 -0.0003830278292298317 0.0009473635582253337 -0.01402607373893261 -0.0007997853681445122 -0.00350716314278543 -0.22738005220890045 0.02607508935034275 -0.03066900558769703 -0.00014102726709097624 -0.005118809174746275 0.9995165467262268 "x: -0.0382459, y: 10.0396, z: -0.70755" "x: 0.0010653, y: 0.00639178, z: -0.0010653"
1625518954015.0964 -7.874495349824429e-05 -0.00029266029014252126 6.76308263791725e-05 0.002966777654364705 -0.010881220921874046 0.004065598361194134 0.016158049926161766 -0.1981653869152069 -0.009460524655878544 -0.030599744990468025 -9.030314686242491e-05 -0.005148150026798248 0.9995184540748596 "x: -0.0573689, y: 10.0396, z: -0.70755" "x: -0.00319589, y: 0.00426119, z: 0.00213059"
1625518954120.016 -0.00014625373296439648 -0.000448175793280825 -0.00027306241099722683 0.00022491143317893147 -0.013397729955613613 -0.001340396236628294 -0.004950867034494877 -0.23804430663585663 -0.04401380568742752 -0.030764425173401833 -0.00011089067265857011 -0.005068827420473099 0.9995138049125671 "x: -0.0382459, y: 10.0396, z: -0.70755" "x: 0.0010653, y: 0.00319589, z: 0"
1625518954219.9402 -0.0005205980269238353 -0.000394065777072683 -0.0005443249829113483 -0.001997591694816947 -0.013849789276719093 -0.0038422259967774153 0.014237473718822002 -0.21695038676261902 -0.02984832413494587 -0.030805429443717003 -0.00014729319082107395 -0.00505432952195406 0.9995126128196716 "x: -0.0573689, y: 10.0396, z: -0.70755" "x: 0.0010653, y: -0.00319589, z: 0.00319589"
1625518954319.864 -0.0004694517992902547 -0.0005269119283184409 -0.00046302544069476426 0.0005531435017473996 -0.01523207314312458 0.0008519143448211253 0.01573234610259533 -0.22253304719924927 0.03853604197502136 -0.03074771910905838 -0.0001161215259344317 -0.005112518090754747 0.9995141625404358 "x: -0.0382459, y: 10.0396, z: -0.688427" "x: 0.0010653, y: -0.00213059, z: -0.00213059"
1625518954419.7878 -0.0003690290614031255 -0.0004650603805202991 -0.0005592924426309764 0.00021547763026319444 -0.013010087423026562 -0.0013682369608432055 -0.0025317997206002474 -0.18545600771903992 0.04131144657731056 -0.03074120171368122 -5.116765896673314e-05 -0.005130039528012276 0.9995142221450806 "x: -0.0382459, y: 10.0587, z: -0.688427" "x: 0.0010653, y: 0.00319589, z: 0"
1625518954524.7017 -0.0004364450869616121 -0.0006521465256810188 -0.0006214797613210976 0.0001404187933076173 -0.015475966036319733 -0.002658552024513483 0.016389042139053345 -0.18528172373771667 -0.048519305884838104 -0.03071780875325203 -3.380349517101422e-05 -0.005159206688404083 0.9995147585868835 "x: -0.0573689, y: 10.0587, z: -0.70755" "x: -0.00213059, y: 0.00213059, z: 0.00319589"
1625518954624.6257 -0.00039166337228380144 -0.00059453712310642 -0.0004258252738509327 0.00036500199348665774 -0.015625374391674995 0.002307815244421363 -0.0018040562281385064 -0.20803575217723846 0.023458382114768028 -0.030688844621181488 -4.2349718569312245e-05 -0.005201295018196106 0.9995154738426208 "x: -0.0382459, y: 10.0396, z: -0.726673" "x: 0.00745708, y: 0, z: -0.0010653"
1625518954724.5493 -0.00021210468548815697 -0.000724590674508363 -0.00040364390588365495 0.0013189705787226558 -0.01764209382236004 -0.00016135507030412555 -0.001611019135452807 -0.23789803683757782 0.0016978398198261857 -0.030710475519299507 -2.6136800443055108e-05 -0.005250232294201851 0.9995145797729492 "x: -0.0382459, y: 10.0396, z: -0.70755" "x: 0.00213059, y: 0, z: 0.00213059"
1625518954824.4734 -0.00017312646377831697 -0.0006260549416765571 -0.00031470987596549094 0.0009161292691715062 -0.015267121605575085 -0.0002966649190057069 -0.0009551600669510663 -0.18675804138183594 -0.06412578374147415 -0.030763162299990654 -7.417409506160766e-05 -0.005256885662674904 0.9995128512382507 "x: -0.0382459, y: 10.0587, z: -0.688427" "x: 0.00213059, y: 0, z: 0.0010653"
1625518954924.3972 -0.0004210920014884323 -0.0005652941181324422 -0.0005886888829991221 -0.0017035765340551734 -0.013685599900782108 -0.0015391455963253975 -0.000899922102689743 -0.1275978833436966 0.050074536353349686 -0.03081144578754902 -7.10603708284907e-05 -0.005206006113439798 0.9995116591453552 "x: -0.0382459, y: 10.0587, z: -0.70755" "x: 0.00213059, y: -0.0010653, z: 0.00319589"
1625518955029.3176 -0.00041774078272283077 -0.0006536577711813152 -0.0004142294928897172 0.0004165243299212307 -0.015584374777972698 -0.00022843159968033433 0.01742316037416458 -0.18751247227191925 -0.014872544445097446 -0.03082502819597721 -0.0001011759668472223 -0.005208881571888924 0.9995112419128418 "x: -0.0573689, y: 10.0396, z: -0.70755" "x: 0, y: -0.0010653, z: 0.00319589"
1625518955129.2415 -0.00018351669132243842 -0.0004999426892027259 -0.00018198585894424468 0.0014705840731039643 -0.014461642131209373 0.002049291506409645 -0.0026365392841398716 -0.1840554028749466 0.039284273982048035 -0.0308267492800951 -4.045520836370997e-05 -0.005138702224940062 0.9995115399360657 "x: -0.0382459, y: 10.0396, z: -0.70755" "x: 0.00319589, y: 0.00532648, z: 0"
1625518955229.1655 -0.000266758055659011 -0.0005887933657504618 -0.0003138487518299371 0.0005045353318564594 -0.015561092644929886 -0.0011098020477220416 0.015890082344412804 -0.208385169506073 -0.08170245587825775 -0.030893884599208832 -8.40143475215882e-05 -0.005150831304490566 0.9995094537734985 "x: -0.0573689, y: 10.0587, z: -0.688427" "x: -0.00213059, y: 0, z: 0"
1625518955329.0896 -0.0003658445493783802 -0.0006958324811421335 -0.0005011250032112002 -0.000345907814335078 -0.017493268474936485 -0.00209196750074625 -0.00401073694229126 -0.21461224555969238 0.006121075712144375 -0.030886229127645493 -2.676312578842044e-05 -0.005101894959807396 0.999509871006012 "x: -0.0382459, y: 10.0396, z: -0.70755" "x: -0.00213059, y: 0, z: 0"
1625518955434.0098 -0.0002451506443321705 -0.0004967036657035351 -0.00028194213518872857 0.0006499594310298562 -0.01209616381675005 0.00011585732136154547 -0.0031784381717443466 -0.10118928551673889 -0.011973300017416477 -0.030889756977558136 -0.0001095713596441783 -0.005097395274788141 0.9995098114013672 "x: -0.0382459, y: 10.0396, z: -0.70755" "x: -0.00426119, y: -0.0010653, z: 0.00426119"
1625518955533.9338 -0.0003607648832257837 -0.0005842060199938715 -0.0002508739416953176 4.147556683165021e-05 -0.01604381389915943 -0.00019454784342087805 -0.004748184699565172 -0.22037991881370544 -0.07843488454818726 -0.030918462201952934 -0.0001928173442138359 -0.005094277206808329 0.9995089173316956 "x: -0.0382459, y: 10.0396, z: -0.688427" "x: 0.00213059, y: -0.0010653, z: 0.00213059"
1625518955633.858 -0.00036658774479292333 -0.0008171910303644836 -0.0003061239840462804 7.456099410774186e-05 -0.018969707190990448 0.0003791671188082546 0.014836937189102173 -0.22581183910369873 0.040073323994874954 -0.030889339745044708 -0.00025170555454678833 -0.005085025914013386 0.999509871006012 "x: -0.0573689, y: 10.0396, z: -0.70755" "x: 0, y: -0.00319589, z: 0.00745708"
1625518955733.782 -9.80348777375184e-05 -0.0006530784885399044 -9.206117101712152e-05 0.0013083198573440313 -0.01603797823190689 0.00028158267377875745 -0.021993109956383705 -0.20979300141334534 -0.03429243341088295 -0.030844133347272873 -0.00020455291087273508 -0.005168244708329439 0.9995108246803284 "x: -0.019123, y: 10.0396, z: -0.688427" "x: 0.00745708, y: -0.00319589, z: 0.00426119"
1625518955838.7024 0.00034502040944062173 -0.0006704111583530903 0.0004975689225830138 0.0036831845063716173 -0.013814305886626244 0.007748508360236883 -0.0007049661362543702 -0.15766048431396484 0.07778308540582657 -0.03083680011332035 -0.0001352148683508858 -0.005240811966359615 0.9995107650756836 "x: -0.0382459, y: 10.0396, z: -0.70755" "x: 0.00213059, y: 0, z: 0"
1625518955938.6262 0.0007542774546891451 -0.0008238134323619306 0.0005836580530740321 0.004210292361676693 -0.01613444648683071 0.002728247083723545 0.0021483702585101128 -0.1808176189661026 -0.03566458448767662 -0.03096131794154644 -3.768599344766699e-05 -0.005413366016000509 0.9995059370994568 "x: -0.0382459, y: 10.0587, z: -0.70755" "x: -0.00319589, y: 0.00213059, z: 0.00213059"
1625518956038.5505 0.0005237240111455321 -0.0008886703290045261 0.0003663708339445293 0.0001094399849534966 -0.016297562047839165 -0.0001569856540299952 0.021787429228425026 -0.17772608995437622 -0.09822013974189758 -0.03102472424507141 1.8913386156782508e-05 -0.005449183285236359 0.9995038509368896 "x: -0.0573689, y: 10.0587, z: -0.70755" "x: 0.00213059, y: 0.00639178, z: 0"
1625518956138.4746 0.00031190773006528616 -0.001010302803479135 0.0001787007786333561 -0.0009693626197986305 -0.018431097269058228 -0.0017745231743901968 0.003538321703672409 -0.2175748199224472 0.012042047455906868 -0.03107132576406002 0.0001069585996447131 -0.005489088594913483 0.9995021820068359 "x: -0.0382459, y: 10.0396, z: -0.688427" "x: 0.0010653, y: -0.00213059, z: 0"
1625518956238.3984 0.0003131637640763074 -0.0009107395890168846 -5.8076097957382444e-06 0.00024785459390841424 -0.01588095910847187 -0.0012728192377835512 -0.013862460851669312 -0.179962158203125 0.011929580010473728 -0.031126491725444794 0.00014730810653418303 -0.0055620502680540085 0.999500036239624 "x: -0.019123, y: 10.0396, z: -0.726673" "x: 0.00319589, y: 0.00319589, z: -0.0010653"
1625518956343.319 -7.732237281743437e-05 -0.0009483227622695267 -0.0004011765122413635 -0.0024165292270481586 -0.0188139658421278 -0.002823465270921588 -0.015595896169543266 -0.22883671522140503 0.018717879429459572 -0.03112008608877659 0.00014266131620388478 -0.005500520579516888 0.999500572681427 "x: -0.019123, y: 10.0396, z: -0.70755" "x: 0.00426119, y: 0.00213059, z: 0.00319589"
1625518956443.243 -0.00043913783156313 -0.0007666875026188791 -0.00014637103595305234 -0.002413277281448245 -0.016389356926083565 0.0024610916152596474 0.001914954511448741 -0.2106296718120575 -0.02250939980149269 -0.031097138300538063 8.21768117020838e-05 -0.005407541990280151 0.9995017647743225 "x: -0.0382459, y: 10.0396, z: -0.688427" "x: 0.00213059, y: -0.0010653, z: -0.0010653"
1625518956543.1672 -0.00013065380335319787 -0.00042564413161017 -0.00026886482373811305 0.001661632675677538 -0.01069969218224287 -0.0002600503503344953 0.002903945976868272 -0.1605008840560913 0.00371613260358572 -0.03115333430469036 1.0389617273176555e-05 -0.005444542970508337 0.9994998574256897 "x: -0.0382459, y: 10.0587, z: -0.70755" "x: 0.00426119, y: 0.00426119, z: 0.0010653"
1625518956643.0916 -0.00022322603035718203 -0.000914979784283787 -0.0002417097130091861 -0.0003384972224012017 -0.017242975533008575 -2.1801672119181603e-05 0.002550558652728796 -0.1719125509262085 -0.062429919838905334 -0.031141869723796844 1.7520345863886178e-05 -0.005441583693027496 0.9995001554489136 "x: -0.0382459, y: 10.0396, z: -0.70755" "x: 0.00319589, y: -0.00213059, z: 0.00213059"
1625518956743.0159 -0.0002476998488418758 -0.0010561359813436866 -0.0003214808239135891 -0.00034839552245102823 -0.01883300580084324 -0.001016381662338972 0.0023821648210287094 -0.1146087497472763 -0.07549679279327393 -0.03109690546989441 4.440414340933785e-05 -0.005391367711126804 0.9995018243789673 "x: -0.0382459, y: 10.0587, z: -0.688427" "x: -0.0010653, y: 0.0010653, z: 0.0010653"
1625518956847.9363 -0.00012415344826877117 -0.0004569007141981274 -0.00022279178665485233 0.0002773291780613363 -0.012051972560584545 0.0009700855589471757 -0.017865702509880066 -0.1897302120923996 0.00862831249833107 -0.031113656237721443 0.00011174386600032449 -0.00537872314453125 0.9995014071464539 "x: -0.0382459, y: 10.0396, z: -0.726673" "x: -0.00213059, y: 0.0010653, z: 0.00213059"
1625518956947.8606 -0.00018178690515924245 -0.0004723625897895545 -0.0003594510490074754 0.0003463574394118041 -0.012752365320920944 0.000488865829538554 9.945986676029861e-05 -0.22664757072925568 -0.014070495963096619 -0.031173693016171455 8.703007188159972e-05 -0.005326651502400637 0.9994997978210449 "x: -0.0382459, y: 10.0396, z: -0.70755" "x: -0.0010653, y: 0.00213059, z: 0"
1625518957048.0217 0.00015346096188295633 -0.0003679676738101989 -0.0001708076597424224 0.0027522698510438204 -0.010669473558664322 0.002216209191828966 -4.0556689782533795e-05 -0.17583142220973969 0.01181815192103386 -0.031197264790534973 0.0001149546296801418 -0.005280924495309591 0.9994993805885315 "x: -0.0382459, y: 10.0587, z: -0.70755" "x: 0.00213059, y: 0, z: -0.00213059"
1625518957147.946 0.00032740511232987046 -0.0003703772381413728 8.922605047700927e-05 0.0021544271148741245 -0.013120257295668125 0.001256941701285541 -0.002271665260195732 -0.2393610179424286 -0.015082675032317638 -0.03120279312133789 8.317809988511726e-05 -0.005212518386542797 0.9994995594024658 "x: -0.0382459, y: 10.0396, z: -0.70755" "x: 0, y: -0.0010653, z: -0.00319589"
1625518957252.8665 0.000320657913107425 -0.00040882526081986725 0.00014541088603436947 0.0015248049749061465 -0.01103946566581726 0.0005990717327222228 -0.002381733153015375 -0.10257170349359512 -0.022027678787708282 -0.031193293631076813 3.691357414936647e-05 -0.005150774493813515 0.9995001554489136 "x: -0.0382459, y: 10.0587, z: -0.726673" "x: 0, y: 0.00319589, z: 0.0010653"
1625518957352.7908 0.0002830123994499445 -0.00037500515463761985 4.8049561883090064e-05 0.0005776592879556119 -0.012971833348274231 0.00024064807803370059 -0.004966013133525848 -0.19124513864517212 -0.04980871081352234 -0.031262338161468506 -3.0798822990618646e-05 -0.005063982680439949 0.9994984865188599 "x: -0.0382459, y: 10.0587, z: -0.726673" "x: 0, y: 0.00319589, z: -0.0010653"
1625518957452.7153 -0.00014662941975984722 -0.0002440037642372772 -0.0001232187933055684 -0.0029965469148010015 -0.012216056697070599 -0.001087866025045514 -0.006074259988963604 -0.2118806540966034 0.002873036079108715 -0.031310975551605225 -8.403309038840234e-05 -0.004976682830601931 0.9994972944259644 "x: -0.0382459, y: 10.0396, z: -0.70755" "x: -0.0010653, y: -0.0010653, z: -0.00213059"
1625518957552.7175 -0.00037354420055635273 -0.00031338533153757453 -0.0003567613603081554 -0.0021776664070785046 -0.01327782217413187 -0.0014030726160854101 -0.006918895523995161 -0.24486804008483887 -0.021317601203918457 -0.03132115676999092 -0.00015366914158221334 -0.004973040893673897 0.9994969964027405 "x: -0.0382459, y: 10.0396, z: -0.688427" "x: 0.0010653, y: 0.00639178, z: -0.0010653"
1625518957657.638 0.00024150362878572196 -0.00028402922907844186 -2.3626604161108844e-05 0.003615783294662833 -0.011753827333450317 -0.0008796037291176617 -0.006045489571988583 -0.19303284585475922 -0.006645703688263893 -0.03136026859283447 -0.0002302379725733772 -0.004994327202439308 0.9994956851005554 "x: -0.0382459, y: 10.0396, z: -0.70755" "x: 0.00426119, y: 0.00639178, z: 0.00319589"
1625518957757.5627 -0.00030439457623288035 -0.000226597796427086 -5.17808018685173e-07 -0.0020245537161827087 -0.00963455531746149 0.00033954789978452027 -0.006838551256805658 -0.09555059671401978 -0.01869564689695835 -0.031480249017477036 -0.0003678000648505986 -0.004911224357783794 0.9994922280311584 "x: -0.0382459, y: 10.0587, z: -0.70755" "x: 0.00426119, y: -0.0010653, z: 0.0010653"
1625518957857.4866 -0.000179575479705818 -0.0003204012173227966 8.706519292900339e-05 0.0003072644758503884 -0.01443631574511528 0.0010639730608090758 0.012009123340249062 -0.22219796478748322 0.02356739528477192 -0.03146929666399956 -0.00033710835850797594 -0.004945214372128248 0.9994925260543823 "x: -0.0573689, y: 10.0587, z: -0.70755" "x: -0.00213059, y: 0, z: 0"
1625518957957.4138 -0.00032887686393223703 -0.00014374699094332755 6.667232810286805e-05 -0.0017522809794172645 -0.011429592035710812 7.35490903025493e-05 -0.0077487509697675705 -0.20859171450138092 0.022068340331315994 -0.03153056651353836 -0.0004130113811697811 -0.004919053055346012 0.9994906187057495 "x: -0.0382459, y: 10.0396, z: -0.70755" "x: 0, y: 0.00213059, z: 0.00426119"
1625518958057.3384 -0.00042242975905537605 -0.00017541628039907664 4.6724821004318073e-05 -0.0010383290937170386 -0.01221583504229784 0.0026571303606033325 -0.007088781800121069 -0.18117670714855194 0.07789289206266403 -0.03156525641679764 -0.00040298353997059166 -0.004914755001664162 0.9994896054267883 "x: -0.0382459, y: 10.0396, z: -0.726673" "x: -0.00426119, y: 0.00532648, z: -0.0010653"
1625518958162.259 -0.0003258948272559792 -0.00034328069887124 -0.0002959551347885281 -0.0004098813224118203 -0.013683716766536236 -0.002242319518700242 -0.026937391608953476 -0.13743388652801514 0.02422226220369339 -0.03157844394445419 -0.0003598866460379213 -0.004884609952569008 0.9994893074035645 "x: -0.019123, y: 10.0396, z: -0.726673" "x: -0.00319589, y: 0, z: 0.00319589"
1625518958262.1833 -0.0001032846630550921 -0.00025418223231099546 0.00019500857160892338 0.0015860238345339894 -0.01217406801879406 0.002431484404951334 -0.008339663036167622 -0.14572057127952576 -0.01962236501276493 -0.031579818576574326 -0.00043031302629970014 -0.004874872043728828 0.9994893074035645 "x: -0.0382459, y: 10.0396, z: -0.726673" "x: 0.00426119, y: -0.00426119, z: -0.0010653"
1625518958362.108 -0.00015069330402184278 -0.00036961474688723683 9.262761886930093e-05 0.001542946440167725 -0.015055297873914242 0.0010184327838942409 0.011245153844356537 -0.1831182986497879 0.03206801414489746 -0.03160833939909935 -0.0005171420052647591 -0.004912061151117086 0.9994881749153137 "x: -0.0573689, y: 10.0587, z: -0.70755" "x: 0.0010653, y: 0.0010653, z: -0.00213059"
1625518958462.0322 -0.0005384127143770456 -0.00021070594084449112 -0.00017157517140731215 -0.0007028610561974347 -0.012090283446013927 0.0007020694320090115 0.012887774966657162 -0.14591114223003387 0.07762965559959412 -0.03161826357245445 -0.0004612243501469493 -0.004964057356119156 0.9994876980781555 "x: -0.0573689, y: 10.0587, z: -0.726673" "x: -0.0010653, y: 0.00426119, z: 0.0010653"
1625518958566.953 -0.0002980487479362637 -0.0004099011712241918 0.00010289703641319647 -0.0005293154390528798 -0.014728556387126446 0.00021593671408481896 -0.006752675864845514 -0.09972267597913742 -0.12920206785202026 -0.03153510019183159 -0.0004889550618827343 -0.004954287316650152 0.9994902610778809 "x: -0.0382459, y: 10.0587, z: -0.70755" "x: 0.0010653, y: 0.00213059, z: 0.00426119"
1625518958666.8774 -0.000558768049813807 -0.00031886875513009727 -0.0002496696833986789 -0.0012315177591517568 -0.013074655085802078 -0.0014429284492507577 0.012793328613042831 -0.17470914125442505 0.03635444492101669 -0.03161762282252312 -0.000526750460267067 -0.004984414670616388 0.9994875192642212 "x: -0.0573689, y: 10.0396, z: -0.726673" "x: 0.00213059, y: 0, z: 0.00213059"
1625518958766.802 -0.0002268109965370968 -0.00039417832158505917 -2.7544414479052648e-05 0.002136889612302184 -0.015435276553034782 0.00043938757153227925 -0.007508985698223114 -0.20456114411354065 0.023721832782030106 -0.03166681155562401 -0.0005591866211034358 -0.004945673048496246 0.9994861483573914 "x: -0.0573689, y: 10.0396, z: -0.726673" "x: 0.00426119, y: 0.00213059, z: -0.0010653"
1625518958866.7266 -0.00048386529670096934 -0.0002162498130928725 -0.00011597445700317621 -0.0004464188532438129 -0.012794426642358303 -0.0006570901023223996 -0.008029724471271038 -0.18911850452423096 0.016961250454187393 -0.031724963337183 -0.000551447388716042 -0.004903391469269991 0.9994844794273376 "x: -0.0382459, y: 10.0396, z: -0.70755" "x: 0, y: 0.00213059, z: 0.00213059"
1625518958971.647 -0.0007237812387757003 -0.00021754468616563827 -0.00023738168238196522 -0.001990710152313113 -0.012827189639210701 -0.0010871486738324165 -0.008210372179746628 -0.15903255343437195 -0.016116689890623093 -0.03176286444067955 -0.0005461118998937309 -0.00489556510001421 0.9994833469390869 "x: -0.0382459, y: 10.0396, z: -0.726673" "x: 0.0010653, y: 0, z: 0.0010653"
1625518959071.5718 -0.0002679164754226804 -0.0004752368258778006 -0.000249024509685114 0.0018972132820636034 -0.014698981307446957 0.0011598907876759768 -0.008372106589376926 -0.1554451882839203 0.04493770748376846 -0.03180583566427231 -0.0004999876255169511 -0.004865272436290979 0.9994820952415466 "x: -0.0382459, y: 10.0587, z: -0.726673" "x: 0.0010653, y: 0.00426119, z: 0.00213059"
1625518959171.496 -0.00037961534690111876 -0.0004301907611079514 -0.0002995830727741122 -0.0002143334422726184 -0.015189724043011665 0.0003383122384548187 -0.00948256254196167 -0.2010958343744278 -0.033978406339883804 -0.03181010112166405 -0.0004786318459082395 -0.004824714735150337 0.9994822144508362 "x: -0.0573689, y: 10.0587, z: -0.688427" "x: 0.0010653, y: 0.00532648, z: -0.0010653"
1625518959271.4207 -0.00020052908803336322 -0.00035235637915320694 -0.00017912386101670563 0.0029651850927621126 -0.01403526496142149 6.958641461096704e-05 0.011302775703370571 -0.13029390573501587 -0.04190007224678993 -0.03184664249420166 -0.0004306318878661841 -0.004893693141639233 0.999480664730072 "x: -0.0573689, y: 10.0396, z: -0.70755" "x: -0.0010653, y: 0.00213059, z: 0.0010653"
1625518959371.3452 -4.4378255552146584e-05 -0.0003681968664750457 0.00011781982175307348 0.0017561606364324689 -0.016362303867936134 0.0010661206906661391 -0.009403567761182785 -0.23118849098682404 -0.0035765315406024456 -0.03183659911155701 -0.00042286375537514687 -0.004851850215345621 0.9994812607765198 "x: -0.0382459, y: 10.0396, z: -0.70755" "x: 0, y: -0.00319589, z: 0.00319589"
1625518959476.2664 -0.00054927944438532 8.365787653019652e-05 -0.00019548936688806862 -0.003762052161619067 -0.009266260080039501 -0.0034577082842588425 -0.009510442614555359 -0.17447249591350555 -0.03957044705748558 -0.03188171982765198 -0.0004901342326775193 -0.004825039301067591 0.9994798898696899 "x: -0.0382459, y: 10.0396, z: -0.70755" "x: 0, y: 0.00319589, z: 0"
1625518959576.1907 -0.0004859230248257518 0.00013329290959518403 -6.872809899505228e-05 -0.0013907463289797306 -0.007531236857175827 0.0008405966800637543 -0.007948791608214378 -0.15297405421733856 0.02064565196633339 -0.03190987929701805 -0.0004820888862013817 -0.004891392774879932 0.9994786977767944 "x: -0.0382459, y: 10.0396, z: -0.726673" "x: -0.00213059, y: 0.00532648, z: 0.0010653"
1625518959676.1155 -0.00027227026293985546 -0.0003829607449006289 -0.00016297827824018896 0.0010733165545389056 -0.015784677118062973 -0.0014497011434286833 -0.02724665030837059 -0.2078288048505783 0.016658222302794456 -0.031950175762176514 -0.00039193686097860336 -0.004909564275294542 0.9994773268699646 "x: -0.019123, y: 10.0587, z: -0.70755" "x: 0.0010653, y: 0.00532648, z: -0.0010653"
1625518959776.0403 -0.0002125725441146642 -0.00030122659518383443 -1.4523949175782036e-05 -0.0003155157610308379 -0.015688085928559303 -0.0011425549164414406 -0.007951272651553154 -0.17724119126796722 0.019102009013295174 -0.031943853944540024 -0.00030000132392160594 -0.004889991600066423 0.9994776844978333 "x: -0.0382459, y: 10.0396, z: -0.726673" "x: 0, y: 0.00213059, z: 0.00213059"
1625518959875.9648 -0.0002224755589850247 2.907714224420488e-05 -0.00017294204735662788 -0.00037654637708328664 -0.008706994354724884 -0.0036052237264811993 -0.008523449301719666 -0.13294833898544312 -0.06609730422496796 -0.03195452317595482 -0.0002952633367385715 -0.004861868917942047 0.9994774460792542 "x: -0.0382459, y: 10.0396, z: -0.70755" "x: -0.00213059, y: 0.00639178, z: -0.0010653"
1625518959980.8857 3.873166861012578e-05 -0.0001315926929237321 0.00011960206757066771 0.0020441007800400257 -0.012046092189848423 0.001896137255243957 0.010217324830591679 -0.1836153268814087 -0.004710065200924873 -0.0319218635559082 -0.000316544872475788 -0.004858145955950022 0.9994785189628601 "x: -0.0573689, y: 10.0396, z: -0.70755" "x: 0.00213059, y: 0.00213059, z: 0.0010653"
1625518960080.8105 -0.0001301282027270645 6.442391168093309e-05 -2.0427273739187513e-06 -0.0016650953330099583 -0.008291587233543396 4.111934686079621e-05 -0.008821976371109486 -0.16735009849071503 0.01946287974715233 -0.03194199874997139 -0.00034342706203460693 -0.004856753628700972 0.9994779229164124 "x: -0.0382459, y: 10.0587, z: -0.726673" "x: 0.0010653, y: 0.00319589, z: 0.0010653"
1625518960180.7354 -0.0002815527841448784 5.012120527680963e-05 -6.445273902500048e-05 -0.0011812065495178103 -0.009904582984745502 0.0002304887311765924 -0.009371031075716019 -0.15758171677589417 0.01849352940917015 -0.032034292817115784 -0.0003746012516785413 -0.004834500607103109 0.9994750022888184 "x: -0.0382459, y: 10.0396, z: -0.70755" "x: 0.00532648, y: -0.00319589, z: 0.00426119"
1625518960285.656 -0.0002940447593573481 5.971253995085135e-05 -0.00014658230065833777 -0.0006504407501779497 -0.010061568580567837 0.0010609135497361422 -0.009287577122449875 -0.18436025083065033 0.05271555110812187 -0.03205767273902893 -0.000362246239092201 -0.004837458487600088 0.999474287033081 "x: -0.0573689, y: 10.0396, z: -0.726673" "x: 0.00319589, y: 0, z: 0.00639178"
1625518960385.5808 -0.00019650555623229593 -2.0812647562706843e-05 -0.00014288706006482244 0.0013208782766014338 -0.011971289291977882 0.0005487780435942113 0.010182826779782772 -0.18478597700595856 0.02190200239419937 -0.03205365687608719 -0.00034204954863525927 -0.004835949279367924 0.9994744658470154 "x: -0.0382459, y: 10.0396, z: -0.726673" "x: 0, y: 0.0010653, z: 0.0010653"
1625518960485.7192 6.817647226853296e-05 -0.00013024469080846757 8.308048563776538e-05 0.0023535818327218294 -0.011792589910328388 0.0012865845346823335 -0.00927766878157854 -0.18633228540420532 -0.05483800545334816 -0.03205713629722595 -0.0003794808581005782 -0.004859729204326868 0.9994741678237915 "x: -0.0382459, y: 10.0587, z: -0.70755" "x: 0.00426119, y: -0.00213059, z: 0.00213059"
1625518960585.6438 -0.0002152968809241429 -3.208777343388647e-05 2.6230003641103394e-05 -0.001792847877368331 -0.010625861585140228 -0.001217766315676272 0.009327227249741554 -0.1700393259525299 -0.04162021726369858 -0.03203076869249344 -0.00032250757794827223 -0.00482296384871006 0.9994751811027527 "x: -0.0573689, y: 10.0587, z: -0.70755" "x: 0.00213059, y: -0.00213059, z: 0.00213059"
1625518960685.5688 -0.00033033208455890417 -6.628993560298113e-06 -0.00023867118579801172 -0.0017326761735603213 -0.01110676396638155 -0.003675878280773759 0.009162523783743382 -0.19463081657886505 -0.013845163397490978 -0.032031331211328506 -0.00035496882628649473 -0.0048229023814201355 0.9994751811027527 "x: -0.0573689, y: 10.0396, z: -0.70755" "x: -0.00213059, y: 0.00426119, z: 0"
1625518960790.4895 -6.905828922754154e-05 2.626786954351701e-05 -3.7810941648785956e-06 0.00042880463297478855 -0.010964443907141685 0.0001010100677376613 -0.009838568978011608 -0.186967134475708 0.025767670944333076 -0.03205706179141998 -0.0004177799273747951 -0.004809476900845766 0.9994744062423706 "x: -0.0382459, y: 10.0396, z: -0.70755" "x: 0.00426119, y: -0.0010653, z: 0.00213059"
1625518960890.4143 0.000149300234625116 -0.00023579764820169657 0.00034094060538336635 0.0011724604992195964 -0.012681727297604084 0.0006831007776781917 -0.010013611055910587 -0.1470140963792801 -0.05393409729003906 -0.03206610307097435 -0.0004136907809879631 -0.004790138453245163 0.9994742274284363 "x: -0.0382459, y: 10.0396, z: -0.688427" "x: 0, y: 0.00426119, z: 0.0010653"
1625518960990.377 -0.00020182711887173355 -0.00013994370237924159 -0.00010120406659552827 -0.001749340444803238 -0.00954372063279152 -0.0010569435544312 -0.010596729815006256 -0.1458040326833725 -0.03346048295497894 -0.03203617036342621 -0.0003747313458006829 -0.004773960914462805 0.9994752407073975 "x: -0.0382459, y: 10.0396, z: -0.70755" "x: -0.0010653, y: 0.00745708, z: 0.0010653"
1625518961090.3018 1.2278616850380786e-05 -0.00016418784798588604 8.987121691461653e-05 0.0008010602323338389 -0.012190207839012146 0.001859548152424395 0.009011177346110344 -0.16874666512012482 0.054313503205776215 -0.032009173184633255 -0.00036443499266169965 -0.004776390735059977 0.9994761347770691 "x: -0.0573689, y: 10.0396, z: -0.70755" "x: 0.00213059, y: 0.00319589, z: 0.00319589"
1625518961195.223 8.645452908240259e-06 -0.00018775415082927793 0.00021719108917750418 0.000795423926319927 -0.012147527188062668 0.0027827508747577667 0.007924802601337433 -0.12947171926498413 0.032076988369226456 -0.03202240914106369 -0.0003406618197914213 -0.00471118837594986 0.9994760155677795 "x: -0.0573689, y: 10.0396, z: -0.726673" "x: -0.0010653, y: 0.00532648, z: 0.00213059"
1625518961295.1477 2.8974325687158853e-05 -0.0003785614389926195 0.00014612461382057518 0.0007357097929343581 -0.014443098567426205 0.0006945159402675927 0.009180345572531223 -0.13020922243595123 -0.009903542697429657 -0.032047152519226074 -0.0003112916892860085 -0.004785771481692791 0.999474823474884 "x: -0.0573689, y: 10.0396, z: -0.726673" "x: 0.00426119, y: -0.00319589, z: 0.00319589"
1625518961395.0725 8.819462527753785e-05 -0.00018673480371944606 0.00042864104034379125 0.0008799234055913985 -0.011797403916716576 0.004006875213235617 -0.009512156248092651 -0.11404144018888474 0.028679870069026947 -0.03200496360659599 -0.000304058485198766 -0.004796531517058611 0.9994761943817139 "x: -0.0382459, y: 10.0396, z: -0.726673" "x: -0.00426119, y: 0.00426119, z: 0.0010653"
1625518961495.0352 0.0003245416737627238 -0.0002973505179397762 0.0005685341311618686 0.0030242539942264557 -0.013918554410338402 0.0017796145984902978 0.00925347302109003 -0.15607327222824097 0.018934104591608047 -0.03204401209950447 -0.00031592685263603926 -0.004783898126333952 0.9994750022888184 "x: -0.0573689, y: 10.0587, z: -0.70755" "x: -0.0010653, y: 0, z: -0.00213059"
1625518961599.9565 0.00015466040349565446 -0.00026752945268526673 0.00018651522987056524 -1.013657765724929e-06 -0.0112571706995368 -0.0003172054421156645 -0.009457044303417206 -0.07528774440288544 0.053490087389945984 -0.03207811713218689 -0.000290364638203755 -0.004771688021719456 0.9994739294052124 "x: -0.0382459, y: 10.0587, z: -0.726673" "x: -0.0010653, y: 0.00958767, z: -0.0010653"
1625518961699.881 -0.000261364271864295 7.57248344598338e-05 -0.00015185332449618727 -0.0020832668524235487 -0.008934647776186466 -0.0029523191042244434 -0.010727448388934135 -0.15915252268314362 0.016588764265179634 -0.03211537003517151 -0.00035786457010544837 -0.004776955582201481 0.9994727373123169 "x: -0.0382459, y: 10.0396, z: -0.745796" "x: 0.00213059, y: 0.00213059, z: 0"
1625518961799.8062 -0.00025509370607323945 -3.8797948946012184e-05 0.0001358629233436659 -0.0014138113474473357 -0.009643444791436195 0.001188067253679037 -0.008821978233754635 -0.04880460351705551 -0.013241908513009548 -0.0321197584271431 -0.0003277978394180536 -0.004813509061932564 0.999472439289093 "x: -0.0382459, y: 10.0396, z: -0.726673" "x: 0.00213059, y: 0.00319589, z: 0.0010653"
1625518961899.731 0.00022748739866074175 -0.00033684799564071 0.0003634378081187606 0.0010058052139356732 -0.01282651349902153 0.0009258442441932857 -0.009057432413101196 -0.1147584542632103 -0.014645001851022243 -0.03212738037109375 -0.00024630973348394036 -0.004836994223296642 0.9994720220565796 "x: -0.0382459, y: 10.0396, z: -0.745796" "x: -0.0010653, y: -0.00213059, z: 0.0010653"
1625518962004.7234 0.00013736283290199935 -0.0002944168518297374 0.00021678637131117284 0.0012259844224900007 -0.014085639268159866 0.0019031347474083304 0.009334199130535126 -0.22626148164272308 0.03481598198413849 -0.03215958923101425 -0.00019977132615167648 -0.004826773423701525 0.999471127986908 "x: -0.0573689, y: 10.0396, z: -0.726673" "x: -0.0010653, y: 0.00426119, z: 0"
1625518962104.6484 0.0004333526303526014 -0.00026439374778419733 0.00028234240016900003 0.0022491856943815947 -0.011474610306322575 -0.00014530459884554148 -0.008684706874191761 -0.09619898349046707 0.002925534499809146 -0.03218450769782066 -0.00016923465591389686 -0.004833938088268042 0.9994702935218811 "x: -0.0382459, y: 10.0587, z: -0.726673" "x: 0.00213059, y: 0.00426119, z: -0.0010653"
1625518962204.5735 0.0002663761842995882 -0.0004925539833493531 0.0003063607437070459 -0.00019084569066762924 -0.01459504384547472 0.0004958270583301783 -0.009920451790094376 -0.19065077602863312 0.01195402443408966 -0.03216247633099556 -0.0001553377805976197 -0.004812511149793863 0.9994710683822632 "x: -0.0382459, y: 10.0587, z: -0.726673" "x: 0, y: 0.0010653, z: -0.0010653"
1625518962304.4983 0.00020243968174327165 -0.00023608571791555732 4.6723856939934194e-05 5.879151649423875e-05 -0.010926314629614353 -0.0020279595628380775 -0.00888625718653202 -0.09035491943359375 0.0237165205180645 -0.03216657042503357 -0.000194281165022403 -0.004805041942745447 0.9994710087776184 "x: -0.0382459, y: 10.0396, z: -0.726673" "x: -0.0010653, y: 0, z: -0.0010653"
1625518962404.423 0.000172752101207152 -0.0004962747916579247 0.0001980493834707886 -6.0926322476007044e-05 -0.014959463849663734 -0.00034418870927765965 0.009007353335618973 -0.15507611632347107 -0.03860972821712494 -0.03219567611813545 -0.00020997160754632205 -0.004784510005265474 0.9994701743125916 "x: -0.0573689, y: 10.0396, z: -0.726673" "x: 0.00532648, y: 0, z: 0.00213059"
1625518962504.411 0.00022764794994145632 -0.0002540865680202842 0.0001996627397602424 0.000724390905816108 -0.012594684027135372 -0.0014167831977829337 0.008949736133217812 -0.174040749669075 -0.07050134241580963 -0.03219488635659218 -0.00020024228433612734 -0.004821194335818291 0.9994699954986572 "x: -0.0573689, y: 10.0396, z: -0.70755" "x: 0.00319589, y: 0.00319589, z: -0.0010653"
1625518962609.3323 0.0003346293233335018 -0.0003906441561412066 0.0003260965459048748 0.001761256018653512 -0.014350821264088154 0.0006907195784151554 0.008935081772506237 -0.17362751066684723 -0.00575138907879591 -0.032204579561948776 -0.00017949128232430667 -0.004771831911057234 0.9994699358940125 "x: -0.0382459, y: 10.0587, z: -0.70755" "x: -0.0010653, y: -0.00213059, z: -0.00213059"
1625518962709.2573 0.0002726699167396873 -0.0002648376685101539 0.00029476420604623854 0.0004733469686470926 -0.010923370718955994 0.0020025798585265875 0.009543873369693756 -0.12316431105136871 -0.005052296444773674 -0.03219330683350563 -0.00012172938295407221 -0.004795466084033251 0.9994701743125916 "x: -0.0573689, y: 10.0587, z: -0.70755" "x: 0.0010653, y: 0.00426119, z: 0.0010653"
1625518962809.1821 0.00023894653713796288 -0.0006104280473664403 -0.00020656503329519182 0.0006958163576200604 -0.015066102147102356 -0.0026748229283839464 -0.009870572946965694 -0.13113448023796082 0.00360963586717844 -0.03216002881526947 -0.00011436916247475892 -0.004797180183231831 0.9994712471961975 "x: -0.0382459, y: 10.0587, z: -0.726673" "x: 0.00426119, y: 0.0010653, z: 0.0010653"
1625518962909.1072 0.0003671801241580397 -0.00040713377529755235 0.00043198763160035014 0.0006411073845811188 -0.012244615703821182 0.001874809036962688 -0.010374793782830238 -0.09316146373748779 -0.005114032421261072 -0.03212892264127731 -0.00017690550885163248 -0.004747773054987192 0.999472439289093 "x: -0.0382459, y: 10.0396, z: -0.726673" "x: 0.0010653, y: 0.00213059, z: -0.0010653"
1625518963009.0325 9.776835213415325e-05 -0.00048642390174791217 0.00011550767521839589 -0.0016070286510512233 -0.015065989457070827 -0.0015312067698687315 -0.011143555864691734 -0.19007019698619843 -0.015374953858554363 -0.03220798447728157 -0.00021080546139273793 -0.004753545392304659 0.9994698762893677 "x: -0.0382459, y: 10.0396, z: -0.726673" "x: 0.00319589, y: -0.00213059, z: 0.0010653"
1625518963113.9536 -2.220542955910787e-05 -6.849230703664944e-05 6.545372889377177e-05 -0.0005163720925338566 -0.009332505986094475 -0.001003451063297689 0.00928924884647131 -0.06780899316072464 0.0028678805101662874 -0.03218350559473038 -0.0002296088496223092 -0.004764837678521872 0.999470591545105 "x: -0.0573689, y: 10.0587, z: -0.726673" "x: 0.00319589, y: 0.00213059, z: 0"
1625518963213.8784 -5.367466656025499e-05 -0.00011046438157791272 -0.00013635029608849436 0.0003991353150922805 -0.010230129584670067 -0.0018883204320445657 0.0093252994120121 -0.17256473004817963 0.0053368727676570415 -0.03220810741186142 -0.00029806463862769306 -0.0048087770119309425 0.9994695782661438 "x: -0.0573689, y: 10.0396, z: -0.70755" "x: 0.0010653, y: -0.0010653, z: 0.00213059"
1625518963313.8037 0.0002099950797855854 -0.00012929225340485573 0.00032484554685652256 0.002162857912480831 -0.011203129775822163 0.0009616832830943167 -0.010655087418854237 -0.18810467422008514 -0.03356095775961876 -0.032179079949855804 -0.00030562985921278596 -0.004795702639967203 0.999470591545105 "x: -0.0382459, y: 10.0396, z: -0.726673" "x: -0.00319589, y: -0.00426119, z: 0.0010653"
1625518963413.7288 0.00016373713151551783 -7.702200673520565e-05 0.00031318338005803525 0.0008725089719519019 -0.00866728462278843 0.0018094164552167058 -0.010511130094528198 -0.14128082990646362 0.023314543068408966 -0.0321233831346035 -0.000325243454426527 -0.004766556434333324 0.9994724988937378 "x: -0.0382459, y: 10.0396, z: -0.726673" "x: -0.00319589, y: 0.00319589, z: 0.00213059"
1625518963518.6392 -0.0002198622387368232 -0.00032072319299913943 -0.00020418241911102086 -0.0027173191774636507 -0.009606129489839077 -0.002561224391683936 0.010041126050055027 -0.07516975700855255 -0.009090729057788849 -0.03215601667761803 -0.0003638400521595031 -0.004812074359506369 0.9994712471961975 "x: -0.0573689, y: 10.0396, z: -0.726673" "x: -0.00639178, y: 0.00745708, z: 0.00213059"
1625518963618.5642 -0.0001988670410355553 -0.00031144038075581193 -7.905784877948463e-05 0.0007038938347250223 -0.010357093065977097 -0.0008399499929510057 0.009575027041137218 -0.15365172922611237 -0.020812518894672394 -0.03216426819562912 -0.0003577917523216456 -0.0048405472189188 0.9994708299636841 "x: -0.0573689, y: 10.0396, z: -0.726673" "x: 0.0010653, y: 0, z: 0.00426119"
1625518963718.489 -0.0003613183507695794 -0.00010592607577564195 -7.092413579812273e-05 -0.002601472893729806 -0.007535965647548437 -0.00037181685911491513 0.01026891078799963 -0.16258008778095245 -0.0006699101068079472 -0.0321410596370697 -0.00033880953560583293 -0.004867182578891516 0.9994714856147766 "x: -0.0573689, y: 10.0396, z: -0.726673" "x: -0.00213059, y: 0.0010653, z: 0.0010653"
1625518963818.4143 -0.00010389420640422031 -0.00038989464519545436 -9.322594269178808e-05 -0.00015958180301822722 -0.012125302106142044 -0.0012270259903743863 -0.008157609030604362 -0.14236795902252197 -0.03051706589758396 -0.03216923028230667 -0.0003073177067562938 -0.0049094646237790585 0.9994703531265259 "x: -0.0573689, y: 10.0396, z: -0.726673" "x: -0.00319589, y: 0.00213059, z: -0.0010653"
1625518963918.3396 0.00010609033051878214 -0.00027868934557773173 -5.950012564426288e-05 0.002150391461327672 -0.01064642146229744 0.0011126009048894048 0.0112290158867836 -0.19056333601474762 0.03337579965591431 -0.0321592316031456 -0.000331777089741081 -0.0049135820008814335 0.9994706511497498 "x: -0.0573689, y: 10.0396, z: -0.726673" "x: -0.0010653, y: -0.0010653, z: 0.00319589"
1625518964023.3574 -0.0001978331129066646 -0.0002995244867634028 -3.8878653867868707e-05 -0.0008997416589409113 -0.010019464418292046 0.0027733114548027515 -0.027416158467531204 -0.11530867964029312 0.017957139760255814 -0.03212350606918335 -0.0003326634760014713 -0.004878315143287182 0.9994719624519348 "x: -0.019123, y: 10.0587, z: -0.745796" "x: 0.00426119, y: -0.0010653, z: -0.0010653"
1625518964123.2827 2.32442507694941e-05 -0.00016965709801297635 9.401197894476354e-05 0.0011464969720691442 -0.007057638373225927 0.0015055310213938355 -0.008100099861621857 -0.1013820469379425 -0.024470869451761246 -0.03210655599832535 -0.00035880020004697144 -0.004883489105850458 0.999472439289093 "x: -0.0382459, y: 10.0396, z: -0.726673" "x: 0.0010653, y: 0.0010653, z: 0.00426119"
1625518964223.208 0.00012814918591175228 -0.00016531528672203422 0.00031317671528086066 0.0003123539499938488 -0.008700139820575714 0.0013532118173316121 -0.008822479285299778 -0.15166404843330383 -0.026598714292049408 -0.03212326765060425 -0.0002494372602086514 -0.004869868513196707 0.9994720816612244 "x: -0.0382459, y: 10.0396, z: -0.726673" "x: 0.00213059, y: 0.0010653, z: -0.0010653"
1625518964323.1328 0.00022819091100245714 -0.00017924221174325794 0.0002510895428713411 0.0002410039014648646 -0.007784953806549311 -0.00013178872177377343 -0.00903242826461792 -0.10923593491315842 -0.03559006750583649 -0.032102424651384354 -0.00018170458497479558 -0.004851328209042549 0.9994727969169617 "x: -0.0382459, y: 10.0396, z: -0.726673" "x: 0, y: -0.00319589, z: 0.00426119"
1625518964423.058 -0.00017969166219700128 -0.00039112649392336607 -0.0002876860380638391 -0.0032488855067640543 -0.011546383611857891 -0.0031787664629518986 -0.009421853348612785 -0.11992939561605453 -0.008184969425201416 -0.032155267894268036 -0.00016347055498044938 -0.004819052759557962 0.9994713068008423 "x: -0.0382459, y: 10.0396, z: -0.726673" "x: -0.0010653, y: 0.0010653, z: 0.00213059"
1625518964527.9795 -0.0001777459547156468 -0.00026909448206424713 -0.00032622841536067426 -0.0015689608408138156 -0.008787078782916069 -0.002741816220805049 0.010923565365374088 -0.12981167435646057 -0.007739237509667873 -0.032146938145160675 -0.00013278465485200286 -0.004893236327916384 0.9994711875915527 "x: -0.0573689, y: 10.0396, z: -0.726673" "x: -0.0010653, y: 0.00213059, z: 0.0010653"
1625518964627.905 0.00022340938448905945 -0.0002969771740026772 0.00013177000801078975 0.0029674037359654903 -0.010252811014652252 0.0015365014551207423 0.01070511806756258 -0.16690078377723694 -0.05411019176244736 -0.03213782608509064 -0.000151274842210114 -0.004888941999524832 0.9994714856147766 "x: -0.0573689, y: 10.0204, z: -0.70755" "x: 0.00426119, y: -0.0010653, z: -0.0010653"
1625518964727.8303 0.0003950593527406454 -0.00019928939582314342 0.00034212833270430565 0.002372853923588991 -0.009780113585293293 0.002733576111495495 -0.00848178006708622 -0.168792724609375 0.02655980922281742 -0.03213566914200783 -0.00018442983855493367 -0.004879509098827839 0.9994716048240662 "x: -0.0382459, y: 10.0204, z: -0.726673" "x: -0.00319589, y: 0.00213059, z: 0.0010653"
1625518964827.7556 0.0002420898963464424 -0.00038631545612588525 3.08602029690519e-05 0.0012658737832680345 -0.010154223069548607 -0.002727377926930785 -0.008585132658481598 -0.06905283033847809 -0.08992037922143936 -0.03213443234562874 -0.00020353404397610575 -0.004857298918068409 0.9994717240333557 "x: -0.0382459, y: 10.0396, z: -0.726673" "x: 0.0010653, y: 0.00213059, z: 0.0010653"
1625518964927.6804 0.0003173123113811016 -0.00043508675298653543 8.331782737514004e-05 0.0007059779018163681 -0.01150879729539156 -0.0003890426887664944 0.010837799869477749 -0.12540403008460999 0.015612974762916565 -0.03212388977408409 -0.0001955548214027658 -0.00487506901845336 0.9994720220565796 "x: -0.0573689, y: 10.0396, z: -0.726673" "x: 0.00213059, y: 0.0010653, z: -0.00426119"
1625518965032.6282 0.00020921850227750838 -0.0004480294301174581 7.17799412086606e-05 -0.0004706575709860772 -0.012808287516236305 -0.001663121161982417 -0.009714554995298386 -0.17063309252262115 -0.06156611442565918 -0.03211508318781853 -0.00015567746595479548 -0.004834810271859169 0.9994724988937378 "x: -0.0382459, y: 10.0396, z: -0.726673" "x: -0.0010653, y: 0.0010653, z: 0"
1625518965132.5535 0.0003957926237490028 -0.000452705891802907 0.0002555346582084894 0.0009930398082360625 -0.012610992416739464 0.0011279124300926924 -0.008825148455798626 -0.17870184779167175 -0.021732350811362267 -0.032176777720451355 -9.84693324426189e-05 -0.004868934862315655 0.9994703531265259 "x: -0.0382459, y: 10.0396, z: -0.70755" "x: 0.0010653, y: -0.0010653, z: 0.00213059"
1625518965232.479 0.00042336960905231535 -0.00037650601007044315 0.00016678507381584495 0.0020523155108094215 -0.012442605569958687 0.0016889974940568209 0.0099517572671175 -0.25846949219703674 0.05755366384983063 -0.032157909125089645 -8.321904897456989e-05 -0.0048866355791687965 0.9994708299636841 "x: -0.0573689, y: 10.0396, z: -0.745796" "x: 0.0010653, y: -0.00213059, z: 0.0010653"
1625518965332.4043 0.0004613800847437233 -0.00037428471841849387 0.00016476697055622935 0.0008160488214343786 -0.010507576167583466 -0.0015014145756140351 -0.009360788390040398 -0.14575496315956116 -0.03685776889324188 -0.0322219543159008 -6.457342533394694e-05 -0.004829500336199999 0.9994691014289856 "x: -0.0382459, y: 10.0396, z: -0.726673" "x: -0.00213059, y: 0.00213059, z: -0.0010653"
1625518965432.3296 0.00019081647042185068 -0.00025917208404280245 6.312181358225644e-05 -0.000151757150888443 -0.00903018657118082 0.0005365950637497008 0.009924649260938168 -0.16556717455387115 -0.0312664657831192 -0.032305724918842316 -0.0001355291751679033 -0.004869956057518721 0.9994661808013916 "x: -0.0382459, y: 10.0587, z: -0.726673" "x: 0.00319589, y: 0, z: -0.00213059"
1625518965537.363 0.00023839953064452857 -0.00015604030340909958 0.0003156764432787895 0.0005964025622233748 -0.007150568068027496 0.0029136373195797205 0.010900950990617275 -0.0941629707813263 0.011967162601649761 -0.0322759672999382 -0.00018286136037204415 -0.0048495871014893055 0.9994671940803528 "x: -0.0573689, y: 10.0396, z: -0.726673" "x: 0.0010653, y: 0.00213059, z: 0.00213059"
1625518965637.288 0.0001926303084474057 -0.00047408166574314237 4.051182986586355e-05 0.00025974545860663056 -0.012207440100610256 -0.0012687937123700976 -0.008828826248645782 -0.15475855767726898 -0.013375569134950638 -0.03232549875974655 -9.485334157943726e-05 -0.004863056354224682 0.9994655251502991 "x: -0.0382459, y: 10.0396, z: -0.70755" "x: 0.0010653, y: 0.00319589, z: 0"
1625518965737.2136 0.0004900116473436356 -0.0003401154826860875 0.00019789581710938364 0.0023161517456173897 -0.011649095453321934 -0.001033663866110146 0.00951233971863985 -0.18710239231586456 -0.025585822761058807 -0.03231579065322876 -0.00016966539260465652 -0.0048311143182218075 0.999466061592102 "x: -0.0573689, y: 10.0396, z: -0.70755" "x: 0.00213059, y: -0.00213059, z: 0.00319589"
1625518965837.139 0.000254583457717672 -0.0003568778629414737 0.00019257004896644503 -1.6864563804119825e-05 -0.010798519477248192 0.0023256284184753895 -0.00793453212827444 -0.11466063559055328 0.06259581446647644 -0.03226378560066223 -0.0001253904338227585 -0.004871642682701349 0.9994674921035767 "x: -0.0382459, y: 10.0204, z: -0.726673" "x: 0.0010653, y: 0.00319589, z: 0.0010653"
1625518965942.0608 0.00010095073957927525 -0.0003989421238657087 -0.00010650025069480762 0.0006209111888892949 -0.010040399618446827 -0.0019135961774736643 -0.007579110562801361 -0.10359825193881989 -0.0588088259100914 -0.03226061537861824 -9.640557982493192e-05 -0.0049194516614079475 0.9994673728942871 "x: -0.0382459, y: 10.0396, z: -0.726673" "x: 0.00319589, y: -0.00532648, z: 0.0010653"
1625518966041.9858 -1.1062779776693787e-05 -0.00011423922114772722 0.0003343223361298442 -0.0003478414728306234 -0.008291132748126984 0.003444659523665905 -0.007199942134320736 -0.1502273976802826 -0.06518131494522095 -0.03226776048541069 -9.002319711726159e-05 -0.004967222921550274 0.9994669556617737 "x: -0.0382459, y: 10.0396, z: -0.726673" "x: -0.0010653, y: 0, z: 0.00213059"
1625518966141.9114 0.00011800287757068872 -0.0005876395152881742 -0.0003550161200109869 0.0003519835590850562 -0.01174620445817709 -0.0021482696756720543 -0.00814239401370287 -0.1499824821949005 -0.038549672812223434 -0.03226906806230545 -0.0001247504842467606 -0.004913621582090855 0.999467134475708 "x: -0.0382459, y: 10.0396, z: -0.745796" "x: 0.0010653, y: 0.0010653, z: -0.00213059"
1625518966241.837 4.742472810903564e-05 -0.0005703143542632461 -0.0001562843390274793 0.0006325622671283782 -0.009620090946555138 -0.00021215752349235117 0.013379687443375587 -0.025720693171024323 -0.006028587464243174 -0.03228206932544708 -7.868488319218159e-05 -0.004949015565216541 0.999466598033905 "x: -0.0382459, y: 10.0396, z: -0.726673" "x: 0.00213059, y: 0.0010653, z: -0.0010653"
1625518966346.7585 -2.7279391360934824e-05 -0.00011554147931747139 -6.56841802992858e-05 -0.0004198497626930475 -0.004930693190544844 0.0021879682317376137 0.011515173129737377 -0.10270413011312485 0.008853754960000515 -0.03229590505361557 -6.297357322182506e-05 -0.004891726188361645 0.9994664192199707 "x: -0.0573689, y: 10.0396, z: -0.726673" "x: 0.0010653, y: 0.0010653, z: 0.0010653"
1625518966446.684 -0.000107588290120475 -0.00021178708993829787 -0.0002692079870030284 -0.0023243878968060017 -0.008538288064301014 -0.0014338181354105473 -0.007916409522294998 -0.14633432030677795 0.026842402294278145 -0.03235334903001785 -8.137004624586552e-05 -0.00489167170599103 0.9994645714759827 "x: -0.0573689, y: 10.0396, z: -0.745796" "x: -0.00426119, y: 0.0010653, z: -0.00213059"
1625518966546.7097 0.0001382804475724697 -0.00024201198539230973 -0.00010496053437236696 0.0006952753756195307 -0.00808454304933548 -0.0008503732969984412 0.01078188419342041 -0.1233057752251625 -0.011769125238060951 -0.03233375772833824 -7.177649240475148e-05 -0.004864731337875128 0.9994653463363647 "x: -0.0573689, y: 10.0396, z: -0.726673" "x: 0.0010653, y: 0.00213059, z: 0.00319589"
1625518966646.6353 0.00036143790930509567 -0.00011255071876803413 0.0003588226391002536 0.0022264651488512754 -0.0068528675474226475 0.0037591280415654182 -0.008869712240993977 -0.12897518277168274 -0.0064546396024525166 -0.03235672786831856 -0.00012247750419192016 -0.004850826691836119 0.9994646310806274 "x: -0.0573689, y: 10.0587, z: -0.745796" "x: 0, y: -0.00319589, z: 0.00213059"
1625518966751.557 9.514413250144571e-05 -0.0002644851338118315 -0.00013060096534900367 -0.0004495946050155908 -0.008328041061758995 -0.0014532681088894606 0.01023324579000473 -0.1053471714258194 0.016901250928640366 -0.032394539564847946 -9.203192894347012e-05 -0.004819214344024658 0.9994635581970215 "x: -0.0573689, y: 10.0396, z: -0.726673" "x: 0.00319589, y: 0.00745708, z: 0.00319589"
1625518966851.4822 0.00020285016216803342 -0.00023016541672404855 4.4155567593406886e-05 0.00037480471655726433 -0.010062211193144321 0.00117861432954669 -0.009804635308682919 -0.1715833842754364 0.02154839225113392 -0.03241388127207756 -9.046661580214277e-05 -0.004809917416423559 0.9994629621505737 "x: -0.0382459, y: 10.0396, z: -0.726673" "x: -0.00213059, y: 0.00319589, z: 0.0010653"
1625518966951.408 0.00016931838763412088 -0.00014351199206430465 -7.3370618338231e-05 0.0004728022322524339 -0.005192556418478489 0.001137381186708808 -0.00882563367486 -0.12226902693510056 0.03894149512052536 -0.03243422508239746 -9.572254202794284e-05 -0.00483520794659853 0.9994621872901917 "x: -0.0382459, y: 10.0587, z: -0.726673" "x: -0.00426119, y: 0.0010653, z: 0.00213059"
1625518967051.3335 0.00012451909424271435 -0.0002692624111659825 -6.293216574704275e-05 0.0011395412730053067 -0.006619422230869532 -0.00019993224123027176 -0.007405150681734085 -0.08141601830720901 -0.0022589568980038166 -0.032443296164274216 -5.581864024861716e-05 -0.004920827690511942 0.9994614720344543 "x: -0.0382459, y: 10.0587, z: -0.726673" "x: -0.00319589, y: 0.00426119, z: 0.00532648"
1625518967151.2588 4.7549914597766474e-05 -0.00023453289759345353 8.760926721151918e-05 0.0005072325002402067 -0.008250800892710686 0.0013483441434800625 -0.008775613270699978 -0.2199356108903885 -0.027674729004502296 -0.03240928426384926 -0.00011502109555294737 -0.004910099320113659 0.9994626641273499 "x: -0.0382459, y: 10.0396, z: -0.726673" "x: -0.0010653, y: -0.00213059, z: 0.00532648"
1625518967256.1807 -3.947873483411968e-05 -0.0003482642350718379 8.625568443676457e-05 -0.0005362987867556512 -0.008811918087303638 0.00016778093413449824 0.01109827496111393 -0.12052464485168457 -0.003547992091625929 -0.03238619118928909 -0.0001503752137068659 -0.004891071002930403 0.9994634985923767 "x: -0.0573689, y: 10.0587, z: -0.745796" "x: -0.0010653, y: 0.00213059, z: -0.0010653"
1625518967356.1062 5.221378160058521e-05 -0.0002854354097507894 0.00011644194455584511 0.0013445430668070912 -0.008270670659840107 0.0016188269946724176 0.011424293741583824 -0.1087217628955841 0.048698145896196365 -0.032407116144895554 -0.00011249303497606888 -0.004875717218965292 0.9994628429412842 "x: -0.0573689, y: 10.0587, z: -0.726673" "x: -0.0010653, y: 0.0010653, z: 0.0010653"
1625518967456.0317 3.1136543839238584e-05 -0.00025732346693985164 3.2778149034129456e-05 0.0007522545638494194 -0.006644686684012413 -0.00031459942692890763 -0.008083052933216095 -0.09006040543317795 -0.02429579570889473 -0.032438818365335464 -0.00010779730655485764 -0.004897290840744972 0.9994617700576782 "x: -0.0382459, y: 10.0587, z: -0.745796" "x: 0, y: -0.0010653, z: 0.0010653"
1625518967556.0222 -2.1482197553268634e-05 -0.00016559807409066707 0.0001161190593848005 0.0009626563405618072 -0.00731493579223752 0.0020995198283344507 0.010470893234014511 -0.16525693237781525 0.0141758406534791 -0.03243649750947952 -0.00016364485782105476 -0.00487764785066247 0.9994618892669678 "x: -0.0573689, y: 10.0396, z: -0.745796" "x: 0.00319589, y: 0.0010653, z: 0.00426119"
1625518967660.9438 -2.0724717614939436e-05 -0.0002516475797165185 -0.00029870891012251377 0.0006208387785591185 -0.0076438612304627895 -0.0038981952238827944 -0.009136682376265526 -0.12468397617340088 -0.046916212886571884 -0.032485347241163254 -0.0002509848854970187 -0.004849512130022049 0.9994603991508484 "x: -0.0382459, y: 10.0396, z: -0.726673" "x: 0.0010653, y: 0.00426119, z: 0.0010653"
1625518967760.8696 -2.2599062504014e-05 -0.0002829534641932696 0.00016171994502656162 0.0008365461835637689 -0.011072914116084576 0.002501683309674263 0.010276849381625652 -0.15982748568058014 0.029414929449558258 -0.03246098384261131 -0.00017765634402167052 -0.004860001616179943 0.9994611740112305 "x: -0.0573689, y: 10.0396, z: -0.745796" "x: 0.0010653, y: 0.0010653, z: 0.0010653"
1625518967860.7952 0.0001267094921786338 -0.00022204026754479855 0.00036087134503759444 0.0006812961073592305 -0.009827285073697567 0.004924440756440163 -0.009496103040874004 -0.15320412814617157 0.08006781339645386 -0.03249366208910942 -0.0001774171250872314 -0.004810168873518705 0.9994603991508484 "x: -0.0382459, y: 10.0396, z: -0.764919" "x: -0.0010653, y: 0.00213059, z: 0.00213059"
1625518967960.721 -0.0004067406407557428 -0.00021440420823637396 -0.0003618713526520878 -0.0026017518248409033 -0.009684475138783455 -0.0034391905646771193 0.009777801111340523 -0.12230851501226425 0.013291318900883198 -0.0325457863509655 -0.00017776187451090664 -0.00481164688244462 0.9994587302207947 "x: -0.0573689, y: 10.0396, z: -0.726673" "x: 0.00213059, y: -0.00213059, z: -0.00319589"
1625518968060.6465 -4.858255124418065e-06 -0.00024905387545004487 1.1433617146394681e-05 0.0008198932628147304 -0.010186419822275639 0.0030337669886648655 -0.009844164364039898 -0.157803475856781 0.10602589696645737 -0.03252630680799484 -0.00013495419989340007 -0.004787475802004337 0.9994593858718872 "x: -0.0382459, y: 10.0204, z: -0.764919" "x: 0, y: -0.00426119, z: 0.00213059"
1625518968165.5684 -0.00020402595691848546 -0.0003178247716277838 -0.00025442594778724015 -0.0013541332446038723 -0.010825999081134796 -0.0010203588753938675 0.009787083603441715 -0.13394945859909058 0.07003757357597351 -0.03258737549185753 -0.0001645492302486673 -0.0048044524155557156 0.9994573593139648 "x: -0.0573689, y: 10.0396, z: -0.745796" "x: -0.0010653, y: -0.00213059, z: 0.00426119"
1625518968265.4937 6.281998503254727e-05 -0.00038422062061727047 -0.00010864545765798539 0.0015719381626695395 -0.010145686566829681 -0.0011684185592457652 0.00964485201984644 -0.11446820944547653 0.00916050374507904 -0.032601919025182724 -0.00022032440756447613 -0.004808212164789438 0.9994568824768066 "x: -0.0573689, y: 10.0587, z: -0.745796" "x: 0, y: -0.00319589, z: 0"
1625518968365.4194 -5.518743637367152e-05 -0.00023688421060796827 8.434899791609496e-05 -0.000717472517862916 -0.009431671351194382 0.0007026909152045846 -0.009230775758624077 -0.12448098510503769 -0.005822780076414347 -0.03257778286933899 -0.00014493252092506737 -0.004824148491024971 0.999457597732544 "x: -0.0382459, y: 10.0396, z: -0.745796" "x: -0.0010653, y: 0.00319589, z: 0.00213059"
1625518968465.3447 0.00010845583165064454 -0.00025349907809868455 5.1766011893050745e-05 0.0018052294617518783 -0.007752222009003162 5.396689084591344e-05 -0.008855132386088371 -0.054449714720249176 0.003668158082291484 -0.03259728103876114 -0.00020327602396719158 -0.004832398146390915 0.9994568824768066 "x: -0.0382459, y: 10.0396, z: -0.726673" "x: 0.0010653, y: 0.00213059, z: 0"
1625518968565.348 -0.0002864760172087699 -0.00039916677633300424 -0.0005995484534651041 0.00011974534572800621 -0.010451344773173332 -0.0030974438413977623 0.011082233861088753 -0.10090476274490356 0.00798088125884533 -0.03261507675051689 -0.00018784210260491818 -0.004866626113653183 0.9994561672210693 "x: -0.0382459, y: 10.0396, z: -0.764919" "x: -0.00532648, y: 0.00426119, z: 0.00426119"
1625518968670.2698 -9.552570554660633e-05 -0.00030548099311999977 0.0002020698884734884 0.0004861150518991053 -0.00925055518746376 0.0029368088580667973 0.011325701139867306 -0.03197898343205452 -0.005631295032799244 -0.032647326588630676 -0.0001708109921310097 -0.004856848157942295 0.9994551539421082 "x: -0.0573689, y: 10.0587, z: -0.745796" "x: 0.00426119, y: 0.00213059, z: 0"
1625518968770.1953 0.00012313072511460632 -0.0003722387191373855 0.00015557750884909183 0.0015258999774232507 -0.01148487813770771 0.002602960215881467 0.010598406195640564 -0.1096033900976181 0.04580296203494072 -0.03267868980765343 -0.000210483543924056 -0.0048497579991817474 0.999454140663147 "x: -0.0573689, y: 10.0396, z: -0.745796" "x: -0.0010653, y: -0.00319589, z: 0.0010653"
1625518968870.1208 -6.231377483345568e-05 -0.00022320447897072881 4.337311474955641e-05 -0.000802708207629621 -0.00940685160458088 -0.0005787283298559487 -0.00979269202798605 -0.17246994376182556 0.007561503443866968 -0.032717861235141754 -0.00020500377286225557 -0.004817490000277758 0.999453067779541 "x: -0.0382459, y: 10.0396, z: -0.726673" "x: 0.00213059, y: 0.00319589, z: -0.00213059"
1625518968970.0466 -5.872204928891733e-05 -0.00022173227625899017 -3.7748981412732974e-05 0.0003413915983401239 -0.008294804953038692 0.00029279745649546385 0.009967464953660965 -0.11617311835289001 -0.0253398809581995 -0.03277191147208214 -0.0002092169743264094 -0.0048321085050702095 0.999451220035553 "x: -0.0573689, y: 10.0396, z: -0.726673" "x: -0.0010653, y: -0.00319589, z: 0.00532648"
1625518969074.9685 -5.654490905726561e-06 -0.00021061833831481636 7.483980152755976e-05 0.0009962236508727074 -0.008484330028295517 0.0015177286695688963 0.011398949660360813 -0.06029883399605751 0.08747215569019318 -0.03280171379446983 -0.0002342067746212706 -0.004844313487410545 0.999450147151947 "x: -0.0573689, y: 10.0396, z: -0.726673" "x: 0, y: 0.0010653, z: 0.00213059"
1625518969174.8943 -3.793112227867823e-06 -0.00025192799512296915 8.195777627406642e-05 0.0001033810549415648 -0.008992168121039867 -0.0004094350733794272 0.010442277416586876 -0.055944785475730896 -0.020381193608045578 -0.032840266823768616 -0.0002262405032524839 -0.004824427422136068 0.9994489550590515 "x: -0.0573689, y: 10.0396, z: -0.764919" "x: 0.00745708, y: 0.0010653, z: 0.0010653"
1625518969274.82 -0.00020967844466213137 -0.0004952682065777481 -0.0006472122040577233 -0.0008008147124201059 -0.013047433458268642 -0.00491004204377532 -0.009359177201986313 -0.12630237638950348 -0.012936970219016075 -0.03284953162074089 -0.00022370615624822676 -0.00482556689530611 0.9994486570358276 "x: -0.0382459, y: 10.0396, z: -0.726673" "x: 0.00319589, y: -0.00213059, z: 0.00319589"
1625518969374.7456 -1.9583068933570758e-05 -0.00016685087757650763 0.0002487812307663262 0.0013331281952559948 -0.007530633360147476 0.0037750930059701204 0.009108328260481358 -0.10025309771299362 0.022175511345267296 -0.03281104564666748 -0.0002154302055714652 -0.004772313870489597 0.9994502067565918 "x: -0.0573689, y: 10.0587, z: -0.745796" "x: 0.00213059, y: -0.0010653, z: 0.00213059"
1625518969474.6714 7.903770892880857e-06 -0.00031414683326147497 0.00017392332665622234 0.0007763036410324275 -0.01113780215382576 0.0028733457438647747 -0.008736729621887207 -0.09920572489500046 0.04905886948108673 -0.0328441858291626 -0.00021675079187843949 -0.004834039602428675 0.999448835849762 "x: -0.0382459, y: 10.0396, z: -0.726673" "x: 0, y: 0, z: 0"
1625518969579.5928 -0.0005085005541332066 -9.501699969405308e-05 -0.00025458374875597656 -0.0025345918256789446 -0.009253411553800106 -0.002697313204407692 0.009097836911678314 -0.17693573236465454 -0.026953838765621185 -0.03288436681032181 -0.00020393154409248382 -0.004812322556972504 0.9994475841522217 "x: -0.0573689, y: 10.0396, z: -0.726673" "x: 0.00213059, y: -0.0010653, z: 0"
1625518969679.5186 4.6819899580441415e-05 -5.906793012400158e-05 0.00010393391858087853 0.0028358441777527332 -0.008605282753705978 0.000978661933913827 -0.008889191783964634 -0.12354499101638794 -0.06568210572004318 -0.032919179648160934 -0.00023181729193311185 -0.0048620919696986675 0.9994462132453918 "x: -0.0382459, y: 10.0396, z: -0.726673" "x: 0.0010653, y: -0.00532648, z: 0"
1625518969779.4438 3.947327058995143e-06 -9.872319424175657e-06 4.311724842409603e-05 0.0010208183666691184 -0.006679792422801256 -0.0007363794138655066 -0.008085462264716625 -0.09049610048532486 -0.029912209138274193 -0.032932598143815994 -0.00022022268967702985 -0.0048879049718379974 0.9994456171989441 "x: -0.0382459, y: 10.0587, z: -0.745796" "x: -0.00426119, y: -0.00213059, z: 0.0010653"
1625518969879.3699 5.947852332610637e-05 -4.3736705265473574e-05 0.00017875271441880614 0.0007087232079356909 -0.008051200769841671 -0.0007726934272795916 0.010515080764889717 -0.1443263590335846 0.007106243632733822 -0.03294777870178223 -0.00020870276784989983 -0.004867589101195335 0.9994451999664307 "x: -0.0573689, y: 10.0587, z: -0.726673" "x: -0.00319589, y: 0.00319589, z: -0.0010653"
1625518969984.292 -0.000222243121243082 -0.00014544642181135714 -0.00011865596025018021 -0.0012786050792783499 -0.009018095210194588 -0.002943289466202259 0.02993980050086975 -0.12111592292785645 -0.026011083275079727 -0.032933950424194336 -0.0002568271302152425 -0.004863745998591185 0.9994456768035889 "x: -0.0764919, y: 10.0396, z: -0.726673" "x: 0, y: -0.00213059, z: 0.00319589"
1625518970084.2178 -0.00021935133554507047 -0.00014277071750257164 -0.00010223653225693852 7.100828952388838e-05 -0.005743564572185278 0.0007628846215084195 0.011383923701941967 -0.11252836883068085 -0.01468949019908905 -0.0329211987555027 -0.00029599375557154417 -0.004912460222840309 0.999445915222168 "x: -0.0573689, y: 10.0396, z: -0.745796" "x: -0.0010653, y: 0.00532648, z: 0.0010653"
1625518970184.1436 -0.00015947633073665202 -0.0001775084965629503 -1.3021626728004776e-05 0.0015890479553490877 -0.00663455855101347 0.0024373314809054136 0.01239679753780365 -0.102210134267807 0.022811658680438995 -0.03288755193352699 -0.0003093023260589689 -0.0049491203390061855 0.9994467496871948 "x: -0.0573689, y: 10.0396, z: -0.745796" "x: 0.00213059, y: 0.00319589, z: 0.00319589"
1625518970284.0693 -0.00012638616317417473 -0.00023896925267763436 -5.1566632464528084e-05 0.0007824386702850461 -0.008930663578212261 -0.000914895674213767 -0.007690953090786934 -0.1519513577222824 -0.035662852227687836 -0.0328325554728508 -0.00032024530810303986 -0.004919536877423525 0.9994487166404724 "x: -0.0573689, y: 10.0587, z: -0.745796" "x: 0.0010653, y: 0.0010653, z: 0.0010653"
1625518970383.995 -0.00027226994279772043 4.3204821849940345e-05 1.693959529802669e-05 -0.0001944820542121306 -0.005149960517883301 0.0003026245394721627 -0.008098538033664227 -0.13669812679290771 -0.02516493946313858 -0.03287149593234062 -0.00029905748669989407 -0.0049110590480268 0.9994474649429321 "x: -0.0382459, y: 10.0396, z: -0.745796" "x: -0.0010653, y: 0.00213059, z: 0.00319589"
1625518970488.9172 -0.00019006009097211063 -0.00021189927065279335 -0.0001507439010310918 0.002009360818192363 -0.009621024131774902 -0.0015680210199207067 0.011265798471868038 -0.11995851993560791 -0.022812794893980026 -0.032880716025829315 -0.00032202136935666203 -0.004915097262710333 0.9994471669197083 "x: -0.0573689, y: 10.0587, z: -0.745796" "x: 0.00213059, y: -0.0010653, z: 0"
1625518970588.9956 -3.095332067459822e-05 -7.31871259631589e-05 7.189053576439619e-05 0.001186680980026722 -0.00611106725409627 0.0020078113302588463 0.011451900005340576 -0.13553683459758759 0.043650396168231964 -0.03292502835392952 -0.00033226434607058764 -0.004913201089948416 0.9994457364082336 "x: -0.0573689, y: 10.0204, z: -0.745796" "x: 0.0010653, y: -0.0010653, z: 0.0010653"
1625518970688.9211 -0.0004236040113028139 -2.582661181804724e-06 3.879327414324507e-05 -0.002653759904205799 -0.008746662177145481 0.0017319918842986226 -0.009144134819507599 -0.16927731037139893 0.03869452327489853 -0.03296494856476784 -0.0003232636663597077 -0.004849084187299013 0.9994447231292725 "x: -0.0382459, y: 10.0396, z: -0.764919" "x: -0.0010653, y: 0.00639178, z: 0.00213059"
1625518970788.847 -0.00017704696801956743 -2.490798397047911e-05 -0.00012813243665732443 0.0005400627269409597 -0.007824779488146305 -0.0033584998454898596 -0.008589035831391811 -0.10654698312282562 -0.004261201713234186 -0.03303757309913635 -0.00026065914425998926 -0.004861573223024607 0.9994422793388367 "x: -0.0382459, y: 10.0587, z: -0.745796" "x: 0.00319589, y: 0, z: 0"
1625518970888.773 -0.0003365863813087344 -4.262747097527608e-05 -0.00024820584803819656 -0.0010348199866712093 -0.00849988218396902 -0.0005050267209298909 0.010347665287554264 -0.1286858767271042 0.06189955398440361 -0.033007048070430756 -0.00023658292775508016 -0.004827867727726698 0.9994434714317322 "x: -0.0573689, y: 10.0204, z: -0.745796" "x: -0.0010653, y: 0.00319589, z: 0"
1625518970993.695 4.733504829346202e-05 -9.981381299439818e-05 0.00015830110351089388 0.0024132763501256704 -0.008764587342739105 0.003718507243320346 0.010157149285078049 -0.08834545314311981 0.05521232634782791 -0.033065345138311386 -0.00021826136799063534 -0.0048028575256466866 0.9994416832923889 "x: -0.0573689, y: 10.0396, z: -0.745796" "x: 0, y: 0, z: 0.00532648"
1625518971093.5999 -0.0001410673139616847 -0.0002829447912517935 -0.0007241697167046368 0.0001679329143371433 -0.010221500881016254 -0.0056596677750349045 0.009402094408869743 -0.11707478761672974 -0.026406342163681984 -0.03313261270523071 -0.0001711458171484992 -0.0048116594552993774 0.9994394183158875 "x: -0.0573689, y: 10.0396, z: -0.726673" "x: 0.00213059, y: 0, z: 0"
1625518971193.5254 -0.0001833450805861503 -0.0004081917286384851 -0.0002045449655270204 -0.000973887275904417 -0.011633132584393024 0.0004673014918807894 0.029220469295978546 -0.11510433256626129 0.06685372442007065 -0.03312749043107033 -0.0002206133649451658 -0.004809620324522257 0.9994395971298218 "x: -0.0764919, y: 10.0396, z: -0.745796" "x: 0, y: 0.00213059, z: 0.0010653"
1625518971293.4514 -8.547256584279239e-05 -7.561511665699072e-06 -5.8170222473563626e-05 0.0007125248084776103 -0.006832378916442394 0.0007920321077108383 -0.009539301507174969 -0.10573636740446091 -0.031452376395463943 -0.033210065215826035 -0.0003070698876399547 -0.004809452220797539 0.9994368553161621 "x: -0.0382459, y: 10.0396, z: -0.745796" "x: 0.00319589, y: 0.00319589, z: 0.00213059"
1625518971393.3774 -0.00021610356634482741 -0.00042066691094078124 -0.0003399712441023439 -0.00010304176976205781 -0.012771460227668285 -0.003850672161206603 -0.009833584539592266 -0.1807136833667755 -0.08130797743797302 -0.03323215991258621 -0.00029850914143025875 -0.004854400176554918 0.9994358420372009 "x: -0.0382459, y: 10.0204, z: -0.745796" "x: -0.0010653, y: 0.00426119, z: 0.00213059"
1625518971493.3032 -0.0003539995232131332 5.556605174206197e-05 -0.00010196703078690916 -0.0001637376844882965 -0.0048912325873970985 0.0010151073802262545 0.010220776312053204 -0.09101630747318268 0.017836343497037888 -0.033238351345062256 -0.0003205685643479228 -0.004821206443011761 0.9994358420372009 "x: -0.0573689, y: 10.0396, z: -0.726673" "x: -0.00213059, y: 0.0010653, z: 0.0010653"
1625518971598.3174 -0.00013451880658976734 -0.00012116332800360397 0.0002205725759267807 0.0012411525240167975 -0.008700462058186531 0.005283556878566742 -0.009033363312482834 -0.11575330048799515 0.01878862828016281 -0.03329410403966904 -0.00029978796374052763 -0.004829283803701401 0.9994339346885681 "x: -0.0382459, y: 10.0396, z: -0.745796" "x: 0.0010653, y: -0.00213059, z: 0.00426119"
1625518971698.2432 -4.4098189391661435e-05 -0.00012172001879662275 -0.0003013689420185983 0.001912127947434783 -0.007756864186376333 -0.0012584099313244224 0.009806519374251366 -0.08384931832551956 -0.001028028316795826 -0.03336796164512634 -0.00034814488026313484 -0.004809968639165163 0.9994315505027771 "x: -0.0573689, y: 10.0396, z: -0.745796" "x: 0.0010653, y: 0.00319589, z: 0.00213059"
1625518971798.1692 -2.3517779482062906e-05 -0.00043347524479031563 -0.0003118404420092702 0.0014691143296658993 -0.011247150599956512 -0.0029984558932483196 0.00995028205215931 -0.08240027725696564 0.00816585123538971 -0.03341107815504074 -0.000264470640104264 -0.004815248306840658 0.9994301199913025 "x: -0.0573689, y: 10.0396, z: -0.745796" "x: 0.00213059, y: 0.00213059, z: 0.00213059"
1625518971903.0913 -0.0005546411848627031 1.9138864445267245e-05 -0.0003806040622293949 -0.002908682683482766 -0.006617351435124874 -0.0018052252708002925 -0.008939716964960098 -0.11187002807855606 -0.009590103290975094 -0.03345436230301857 -0.00027915442478843033 -0.004842174705117941 0.9994285702705383 "x: -0.0382459, y: 10.0396, z: -0.726673" "x: 0.0010653, y: 0.00213059, z: 0.00213059"
1625518972003.0173 1.4645521332568023e-05 3.142620334983803e-05 0.0001781115570338443 0.0032721012830734253 -0.007204542867839336 0.0031215869821608067 0.011567017994821072 -0.10346037894487381 0.030483365058898926 -0.03344791382551193 -0.0003192394506186247 -0.004901006352156401 0.9994284510612488 "x: -0.0573689, y: 10.0396, z: -0.764919" "x: 0.00426119, y: 0.0010653, z: 0"
1625518972102.9536 -0.00012886108015663922 -0.0002477346279192716 -0.0005888252635486424 0.0012770079774782062 -0.01126424502581358 -0.006145482417196035 0.010520262643694878 -0.11622970551252365 -0.031054750084877014 -0.03352448344230652 -0.00035966289578936994 -0.004858482163399458 0.9994260668754578 "x: -0.0573689, y: 10.0396, z: -0.745796" "x: 0, y: 0.0010653, z: 0.00426119"
1625518972202.8796 -0.00030338825308717787 6.122115155449137e-05 0.00013712700456380844 -0.0012556541478261352 -0.007886259816586971 0.0008301553898490965 0.010028026066720486 -0.09890197962522507 -0.029858071357011795 -0.03359176963567734 -0.00038805094663985074 -0.004842714872211218 0.9994238018989563 "x: -0.0573689, y: 10.0396, z: -0.764919" "x: 0.00319589, y: 0.00319589, z: 0.00532648"
1625518972302.806 -6.83338803355582e-05 8.148467895807698e-05 9.281270467909053e-05 0.0015033949166536331 -0.007727617863565683 0.00024773419136181474 -0.010194117203354836 -0.14556579291820526 0.03936292231082916 -0.033658262342214584 -0.0004238060209900141 -0.004798428155481815 0.9994217753410339 "x: -0.0382459, y: 10.0396, z: -0.764919" "x: 0.0010653, y: -0.0010653, z: 0.00213059"
1625518972402.7317 -0.0007175879436545074 -0.00026960542891174555 -0.0006261974922381341 -0.0024417066015303135 -0.011030926369130611 -0.007071156054735184 0.007955534383654594 -0.12474147230386734 -0.04994084686040878 -0.033664364367723465 -0.00044741894816979766 -0.0047379364259541035 0.9994218349456787 "x: -0.0573689, y: 10.0396, z: -0.745796" "x: 0, y: 0.00745708, z: 0.0010653"
1625518972507.654 -0.00013210036559030414 7.457928586518392e-05 0.0003262004174757749 0.0012121156323701143 -0.008510756306350231 0.003450849326327443 0.008369454182684422 -0.0977826714515686 -0.004032783210277557 -0.03367498517036438 -0.00042773952009156346 -0.004756765440106392 0.9994214177131653 "x: -0.0573689, y: 10.0204, z: -0.764919" "x: -0.0010653, y: 0.00426119, z: 0.00213059"
1625518972607.5803 -0.0001600303512532264 0.00020040434901602566 0.00010907768592005596 0.002291772747412324 -0.004151663742959499 0.0024773161858320236 0.009048046544194221 -0.06284376978874207 0.013039344921708107 -0.03363688290119171 -0.0003855811955872923 -0.004763023462146521 0.9994226694107056 "x: -0.0573689, y: 10.0587, z: -0.764919" "x: -0.00639178, y: -0.00213059, z: 0.00319589"
1625518972707.506 -0.0003364419681020081 2.2484371697828465e-07 0.00011149175406899303 -0.0013044798979535699 -0.008991613984107971 -0.0003822229919023812 -0.011876381933689117 -0.14734171330928802 -0.03778161108493805 -0.03364117443561554 -0.0004128629225306213 -0.004718046169728041 0.9994227886199951 "x: -0.0382459, y: 10.0396, z: -0.745796" "x: 0.0010653, y: 0.0010653, z: 0.0010653"
1625518972807.4321 4.844420254812576e-05 -0.00017705667414702475 0.0007199497777037323 0.001501067541539669 -0.01037805899977684 0.004514032509177923 0.007519720122218132 -0.08470079302787781 0.029083803296089172 -0.03368077799677849 -0.00046538221067748964 -0.004676890559494495 0.9994215965270996 "x: -0.0573689, y: 10.0396, z: -0.745796" "x: 0.00319589, y: 0.00532648, z: 0"
1625518972912.3547 -0.0002247724769404158 0.00023440162476617843 0.00015176465967670083 -0.00011861772509291768 -0.006542604882270098 0.0004988379077985883 0.0065352232195436954 -0.13577774167060852 -0.0023778416216373444 -0.03375920280814171 -0.0005307694082148373 -0.004658984486013651 0.9994190335273743 "x: -0.0573689, y: 10.0396, z: -0.745796" "x: 0, y: -0.0010653, z: 0.00426119"
1625518973012.4045 -0.0001246381871169433 0.00014904674026183784 0.0005468844319693744 0.00026420256472192705 -0.007853102870285511 0.0037106939125806093 0.0060945479199290276 -0.11486371606588364 -0.02859913930296898 -0.03376565873622894 -0.000508312601596117 -0.0046396576799452305 0.9994188547134399 "x: -0.0573689, y: 10.0396, z: -0.745796" "x: 0.00319589, y: -0.0010653, z: -0.00213059"
1625518973112.3306 -0.0003865874314215034 0.0003544880310073495 -1.8040906070382334e-05 -0.0028223395347595215 -0.002715567359700799 -0.002515612868592143 0.006611834745854139 -0.07264797389507294 -0.04124552756547928 -0.03379388898611069 -0.0005037133814767003 -0.004664123058319092 0.999417781829834 "x: -0.0382459, y: 10.0587, z: -0.764919" "x: -0.00532648, y: 0.00426119, z: 0.00426119"
1625518973212.2566 -0.00030353563488461077 0.00033032684586942196 3.124112481600605e-05 -1.7189182472066022e-05 -0.0055591026321053505 0.0004574005142785609 -0.012311525642871857 -0.13687990605831146 0.019180700182914734 -0.033763691782951355 -0.00048040514229796827 -0.004674206487834454 0.9994187951087952 "x: -0.0382459, y: 10.0396, z: -0.745796" "x: -0.00213059, y: 0.0010653, z: 0.00426119"
1625518973317.179 -0.00040952020208351314 0.0001375580031890422 -0.00015230206190608442 -0.00204234616830945 -0.0057634576223790646 -0.00206019077450037 -0.011791610158979893 -0.0723654106259346 -0.01857052743434906 -0.03374393284320831 -0.0004092170565854758 -0.004680505022406578 0.9994195103645325 "x: -0.0573689, y: 10.0396, z: -0.745796" "x: 0, y: 0.00319589, z: -0.00213059"
1625518973417.105 -0.0004116746422369033 6.436804687837139e-05 -3.325393481645733e-05 -0.001965750940144062 -0.007372688967734575 2.4559980374760926e-05 0.0070183430798351765 -0.13555584847927094 0.010010993108153343 -0.03372379019856453 -0.000450576888397336 -0.00468833465129137 0.9994200468063354 "x: -0.0573689, y: 10.0396, z: -0.764919" "x: 0.00319589, y: -0.0010653, z: 0.0010653"
1625518973517.0312 -0.0002478246169630438 0.00024008657783269882 9.520947060082108e-05 0.0017412651795893908 -0.0038775342982262373 0.001508132554590702 0.007380018942058086 -0.11443476378917694 0.014826012775301933 -0.03375536575913429 -0.0005015418864786625 -0.004699374549090862 0.9994189143180847 "x: -0.0573689, y: 10.0396, z: -0.745796" "x: 0, y: 0.0010653, z: 0.00213059"
1625518973616.9575 -0.0005051337648183107 0.0003296298673376441 -0.000178168251295574 -0.001078906119801104 -0.004180698189884424 -0.003235679352656007 0.006403342355042696 -0.09437635540962219 -0.030618833377957344 -0.033767297863960266 -0.0005451191100291908 -0.0046435268595814705 0.9994188547134399 "x: -0.0382459, y: 10.0396, z: -0.745796" "x: -0.0010653, y: 0, z: -0.0010653"
1625518973716.8835 -0.0005911536864005029 8.839736256049946e-05 -0.00019137791241519153 -0.00029413780430331826 -0.006902559194713831 -0.0016870289109647274 0.0068556335754692554 -0.08938296884298325 -0.05627581849694252 -0.033773116767406464 -0.0005625399062409997 -0.00466740969568491 0.9994184970855713 "x: -0.0573689, y: 10.0587, z: -0.764919" "x: -0.00213059, y: 0.0010653, z: 0.0010653"
1625518973816.8096 -0.0006527630030177534 3.4861961466958746e-05 -0.00036998564610257745 -0.0012842065189033747 -0.005934766959398985 -0.003310922998934984 0.006241754163056612 -0.09215861558914185 0.021472595632076263 -0.03373776748776436 -0.0005644054617732763 -0.00464281439781189 0.9994197487831116 "x: -0.0573689, y: 10.0396, z: -0.784042" "x: 0.0010653, y: 0.00213059, z: 0.00213059"
1625518973921.732 -0.0003247912973165512 -7.677084795432165e-05 -0.00013573873729910702 0.002708117011934519 -0.009560545906424522 0.0021061000879853964 0.005846434738487005 -0.24960282444953918 0.10042285919189453 -0.03373664990067482 -0.0005379099166020751 -0.004665677435696125 0.9994197487831116 "x: -0.0573689, y: 10.0396, z: -0.745796" "x: 0.00213059, y: 0, z: 0"
1625518974021.7512 -9.967600635718554e-05 0.00026558240642771125 0.00012155832519056275 0.0025138529017567635 -0.006776377093046904 -0.0007625552243553102 0.006173418834805489 -0.13799038529396057 -0.04780218005180359 -0.03378983959555626 -0.00047259844723157585 -0.0046752565540373325 0.9994179010391235 "x: -0.0573689, y: 10.0396, z: -0.745796" "x: 0.00213059, y: -0.00213059, z: 0.00213059"
1625518974121.6772 -0.0006212100270204246 -7.814660057192668e-05 -0.00040860477020032704 -0.002720891498029232 -0.010553069412708282 -0.005478910636156797 0.0068463291972875595 -0.13715340197086334 0.0023120841942727566 -0.033833738416433334 -0.0005020018434152007 -0.004671430680900812 0.9994164705276489 "x: -0.0573689, y: 10.0204, z: -0.745796" "x: 0, y: 0.00319589, z: 0.0010653"
1625518974221.6035 -0.0006294044433161616 3.857730553136207e-05 -0.00021430892229545861 -0.001469856477342546 -0.007723344024270773 0.0005307386163622141 -0.011853165924549103 -0.1450492888689041 -0.005842028185725212 -0.03377170488238335 -0.0005702439229935408 -0.004734206944704056 0.9994181990623474 "x: -0.0382459, y: 10.0396, z: -0.784042" "x: 0.0010653, y: 0.00319589, z: 0.0010653"
1625518974321.5295 -0.00037505157524719834 0.00019608481670729816 0.0001291554799536243 0.0015271814772859216 -0.0044483221136033535 0.003004608675837517 -0.011587321758270264 -0.04734053462743759 -0.015867670997977257 -0.03379259258508682 -0.0005665684584528208 -0.004687830340117216 0.999417781829834 "x: -0.0382459, y: 10.0587, z: -0.764919" "x: 0.00213059, y: 0, z: 0.00426119"
1625518974426.4521 -0.0002817501954268664 1.5442572021129308e-06 -4.456803435459733e-05 0.0014173546805977821 -0.007992731407284737 7.95080850366503e-05 0.008000027388334274 -0.06715106219053268 -0.03729620575904846 -0.03378346189856529 -0.0005609264480881393 -0.004735175520181656 0.9994178414344788 "x: -0.0573689, y: 10.0587, z: -0.764919" "x: -0.0010653, y: -0.00213059, z: -0.0010653"
1625518974526.3782 -0.0005980140995234251 8.8350752776023e-05 -0.0002170693624066189 -0.0014435717603191733 -0.006974720861762762 -0.0021733324974775314 -0.012063797563314438 -0.09320589154958725 -0.04915013909339905 -0.03376360610127449 -0.0005963286384940147 -0.00469132699072361 0.9994186758995056 "x: -0.0382459, y: 10.0396, z: -0.745796" "x: 0, y: 0.00213059, z: 0"
1625518974626.3044 -0.000857172766700387 -5.094332664157264e-05 -0.0005203178152441978 -0.0019293498480692506 -0.007296271622180939 -0.0033487416803836823 -0.012533653527498245 -0.11832257360219955 -0.018752142786979675 -0.03375435620546341 -0.0005717188469134271 -0.004673450253903866 0.999419093132019 "x: -0.0382459, y: 10.0396, z: -0.745796" "x: 0, y: 0.00213059, z: -0.0010653"
1625518974726.2307 -0.0006550969555974007 2.3284794224309735e-05 -0.00034801490255631506 0.000969221000559628 -0.006828409153968096 0.0004374372656457126 0.006952902767807245 -0.11344664543867111 0.003840360324829817 -0.03377344459295273 -0.0005273256101645529 -0.00468375813215971 0.9994183778762817 "x: -0.0573689, y: 10.0396, z: -0.745796" "x: 0.00532648, y: 0.00532648, z: -0.0010653"
1625518974826.1567 -0.00033609705860726535 -2.193757245549932e-05 -0.0002646148786880076 0.002743683522567153 -0.007836193777620792 0.000670194043777883 0.008045308291912079 -0.10065395385026932 0.023484105244278908 -0.03375426307320595 -0.0005045233410783112 -0.0047319806180894375 0.9994188547134399 "x: -0.0382459, y: 10.0396, z: -0.745796" "x: -0.00639178, y: 0.00426119, z: 0.00639178"
1625518974931.0793 -0.0006132518756203353 -0.00010476832540007308 -0.0002788380370475352 -0.0014219653094187379 -0.007535842247307301 -0.00010848476085811853 0.008135746233165264 -0.07305242121219635 0.012568028643727303 -0.03371303156018257 -0.0005069850012660027 -0.004713153932243586 0.9994202852249146 "x: -0.0573689, y: 10.0396, z: -0.745796" "x: -0.00213059, y: 0, z: 0.00426119"
1625518975031.1135 -0.00028488232055678964 -6.460580334533006e-05 -0.0002628611691761762 0.0015554792480543256 -0.007709358353167772 -0.000438874849351123 0.00820247270166874 -0.07499641180038452 0.045436106622219086 -0.03375907242298126 -0.0004984263214282691 -0.004714089445769787 0.9994187355041504 "x: -0.0573689, y: 10.0587, z: -0.745796" "x: 0.00319589, y: 0, z: 0.00213059"
1625518975131.0398 0.00016153563046827912 0.0001368129887850955 0.00048189720837399364 0.003401999594643712 -0.007563697639852762 0.004959507845342159 0.006581434048712254 -0.1452854424715042 0.05658208578824997 -0.03380073979496956 -0.0005120777059346437 -0.004671154543757439 0.9994175434112549 "x: -0.0573689, y: 10.0396, z: -0.764919" "x: -0.00213059, y: 0.0010653, z: -0.0010653"
1625518975230.966 -0.0004965277621522546 -4.263370283297263e-05 -0.0002678277960512787 -0.001711069606244564 -0.007766336668282747 -0.004304098431020975 0.0055898563005030155 -0.08482086658477783 -0.019961010664701462 -0.03382505476474762 -0.0005403527175076306 -0.0045993747189641 0.9994170665740967 "x: -0.0573689, y: 10.0396, z: -0.764919" "x: 0.00319589, y: 0.00532648, z: -0.00213059"
1625518975335.8884 -0.0006504848133772612 -4.4953154429094866e-05 -8.171889930963516e-05 -0.0023826882243156433 -0.008320095017552376 0.005014773458242416 0.005607375409454107 -0.1290704756975174 0.10706772655248642 -0.03380754217505455 -0.0005386999691836536 -0.004605448339134455 0.9994176626205444 "x: -0.0573689, y: 10.0396, z: -0.784042" "x: 0.00213059, y: 0.00426119, z: 0.00319589"
1625518975435.8147 -0.00016853134729899466 0.000312571763060987 0.0003012047382071614 0.002365994267165661 -0.004880849272012711 0.004961520433425903 0.005543702747672796 -0.02890557423233986 0.003161707194522023 -0.03383683040738106 -0.000515689083840698 -0.004578185733407736 0.9994167685508728 "x: -0.0573689, y: 10.0396, z: -0.764919" "x: -0.00532648, y: 0, z: 0.00213059"
1625518975535.7595 -0.0002541113062761724 -0.00015463145973626524 4.169960811850615e-05 0.0005530875641852617 -0.012624860741198063 -0.0013086141552776098 0.00445669237524271 -0.14904774725437164 -0.03106931410729885 -0.03383868560194969 -0.00039985720650292933 -0.004579235799610615 0.999416708946228 "x: -0.0573689, y: 10.0396, z: -0.764919" "x: -0.0010653, y: 0.00319589, z: -0.0010653"
1625518975635.6858 9.765456343302503e-05 0.00015090488886926323 0.0004466670798137784 0.0017450937302783132 -0.007361391093581915 0.0031400835141539574 0.004568920936435461 -0.13251695036888123 0.022692900151014328 -0.033810630440711975 -0.0004504593671299517 -0.004555847495794296 0.999417781829834 "x: -0.0573689, y: 10.0396, z: -0.764919" "x: -0.00213059, y: 0.00532648, z: 0.00213059"
1625518975735.612 -0.00036558019928634167 -0.000302341824863106 -6.577090243808925e-05 -0.001989297801628709 -0.01207861676812172 0.0006184853846207261 0.005140614230185747 -0.12323097884654999 0.09345732629299164 -0.033811669796705246 -0.00035250099608674645 -0.004572686739265919 0.9994177222251892 "x: -0.0573689, y: 10.0587, z: -0.764919" "x: 0, y: 0.00213059, z: 0"
1625518975835.538 -0.0005703152855858207 -0.00012949439405929297 -0.0003705176350194961 -0.0016318593407049775 -0.011388149112462997 -0.0008853204781189561 -0.015069288201630116 -0.19757448136806488 0.010839911177754402 -0.03385267034173012 -0.0004119461227674037 -0.004573095589876175 0.9994162917137146 "x: -0.0382459, y: 10.0396, z: -0.784042" "x: 0.00426119, y: 0, z: -0.00213059"
1625518975940.461 -0.00010982272942783311 0.00026304161292500794 4.9220852815778926e-05 0.001329350401647389 -0.0057598198764026165 0.0003561613557394594 -0.014497682452201843 -0.12354027479887009 0.05417385697364807 -0.03392244130373001 -0.0004376872384455055 -0.004554306622594595 0.9994140267372131 "x: -0.0382459, y: 10.0396, z: -0.745796" "x: 0.00532648, y: -0.00319589, z: 0.00213059"
1625518976040.4194 5.1855902711395174e-05 -5.371990118874237e-05 0.0003242387901991606 0.0009886432671919465 -0.01074243150651455 0.001163256587460637 0.004051928874105215 -0.06805440783500671 -0.03282459080219269 -0.03393173962831497 -0.00040739058749750257 -0.00452601071447134 0.9994138479232788 "x: -0.0573689, y: 10.0396, z: -0.745796" "x: 0.00213059, y: -0.00213059, z: -0.00213059"
1625518976140.3457 -0.0001429940020898357 -5.386368866311386e-05 0.00035457228659652174 -0.0010032466379925609 -0.008471593260765076 0.00036303058732300997 0.0030784793198108673 -0.10262900590896606 -0.10039076954126358 -0.03389430791139603 -0.0003152163699269295 -0.004487863276153803 0.9994152784347534 "x: -0.0573689, y: 10.0587, z: -0.726673" "x: 0, y: 0, z: 0"
1625518976240.272 -0.000340400671120733 -9.6697207482066e-05 -0.00032856842153705657 -0.0004921410582028329 -0.008844142779707909 -0.0017287943046540022 0.003914066590368748 -0.07903148978948593 0.058151572942733765 -0.03388483449816704 -0.0002969653287436813 -0.004504629410803318 0.9994155764579773 "x: -0.0573689, y: 10.0396, z: -0.764919" "x: 0.0010653, y: 0.00532648, z: 0.00213059"
1625518976345.1946 -7.380187162198126e-05 -0.00014421003288589418 -0.00016821763711050153 0.0004037246690131724 -0.00845877081155777 -0.0005403574905358255 -0.015192598104476929 -0.07082752138376236 0.00513453409075737 -0.03388940542936325 -0.0002894550852943212 -0.004508479963988066 0.999415397644043 "x: -0.0382459, y: 10.0396, z: -0.764919" "x: 0.0010653, y: 0.00319589, z: -0.0010653"
1625518976445.1208 -0.00020868240972049534 1.819480166886933e-05 -0.0002276314189657569 -0.0008219771552830935 -0.005657931324094534 -0.001809553592465818 0.004028146620839834 -0.10818016529083252 -0.000141811091452837 -0.033893417567014694 -0.00029997091041877866 -0.004529206547886133 0.9994151592254639 "x: -0.0573689, y: 10.0396, z: -0.764919" "x: 0.00213059, y: 0, z: 0.00213059"
1625518976545.0474 -0.0002382823295192793 0.00018075770640280098 -0.00014284280769061297 -9.844453597906977e-05 -0.0039857435040175915 0.0005968037294223905 0.00444908207282424 -0.09326205402612686 0.01593451015651226 -0.0338943749666214 -0.00032549703610129654 -0.004547919612377882 0.9994150400161743 "x: -0.0573689, y: 10.0204, z: -0.764919" "x: 0.00319589, y: 0.0010653, z: -0.0010653"
1625518976644.9739 -0.00024363028933294117 0.0001536118652438745 -0.000141717420774512 -0.0008409919682890177 -0.0047282506711781025 0.0002708781976252794 0.004414655733853579 -0.12046165764331818 0.03754811733961105 -0.0339004211127758 -0.00033229103428311646 -0.004544224590063095 0.99941486120224 "x: -0.0573689, y: 10.0396, z: -0.764919" "x: 0.0010653, y: -0.0010653, z: -0.0010653"
1625518976744.9001 -8.212415559682995e-05 -7.925280078779906e-05 -1.9676524971146137e-05 0.002714874455705285 -0.009454570710659027 0.0013212042395025492 0.002952956361696124 -0.1457684338092804 0.0030238875187933445 -0.03386550769209862 -0.0003947945951949805 -0.004489426966756582 0.9994162321090698 "x: -0.0573689, y: 10.0396, z: -0.764919" "x: 0.00319589, y: 0.00213059, z: 0.0010653"
1625518976844.8262 0.00011252567492192611 -2.8055956136086024e-05 5.160910222912207e-05 0.0019774166867136955 -0.004574425984174013 0.0010928752599284053 -0.016049189493060112 -0.08319813013076782 -0.019935227930545807 -0.03384752571582794 -0.0003347041492816061 -0.004474583547562361 0.9994169473648071 "x: -0.0382459, y: 10.0396, z: -0.745796" "x: -0.00213059, y: 0.00213059, z: 0.00213059"
1625518976949.749 -0.00048269215039908886 0.0001131821409217082 -0.0002529628109186888 -0.002936937613412738 -0.005591230932623148 -0.0016960346838459373 0.002358686411753297 -0.09480751305818558 -0.03919076919555664 -0.03390851616859436 -0.00039438350358977914 -0.0044461083598434925 0.9994150400161743 "x: -0.0573689, y: 10.0396, z: -0.745796" "x: 0.0010653, y: 0.00319589, z: 0.00213059"
1625518977049.6755 2.9686889320146292e-05 -6.720019155181944e-05 0.00017687652143649757 0.00279044802300632 -0.007874890230596066 0.0023669309448450804 0.0019186359131708741 -0.09635502099990845 -0.020574789494276047 -0.03390616551041603 -0.00044492288725450635 -0.004420708864927292 0.9994151592254639 "x: -0.0573689, y: 10.0396, z: -0.764919" "x: -0.0010653, y: -0.0010653, z: 0.00213059"
1625518977149.602 -1.5432366126333363e-05 4.8252542910631746e-05 9.096733992919326e-05 0.0014931008918210864 -0.006237804424017668 0.002259672386571765 0.0030554907862097025 -0.10931862145662308 0.05633364990353584 -0.03385692089796066 -0.00047449584235437214 -0.004454621579498053 0.9994166493415833 "x: -0.0573689, y: 10.0587, z: -0.764919" "x: 0.0010653, y: 0, z: -0.0010653"
1625518977249.5283 -0.0004874381411354989 7.619306416017935e-05 -0.00011166074546054006 -0.002671521157026291 -0.006117128301411867 -0.00024224561639130116 0.002462786389514804 -0.10378176718950272 0.027088146656751633 -0.03383719548583031 -0.000500786816701293 -0.004450897686183453 0.9994173645973206 "x: -0.0573689, y: 10.0396, z: -0.764919" "x: 0.00213059, y: 0.0010653, z: 0.0010653"
1625518977354.4512 -0.0003829671477433294 9.235933248419315e-05 -0.00012415942910593003 -0.0007611197070218623 -0.0027884547598659992 0.00098584801889956 0.003936494700610638 0.010844023898243904 0.026284467428922653 -0.033862724900245667 -0.0004700325080193579 -0.004472742788493633 0.9994163513183594 "x: -0.0573689, y: 10.0587, z: -0.764919" "x: 0.00319589, y: 0.00319589, z: 0.00319589"
1625518977454.3774 8.001124660950154e-05 -9.877564298221841e-05 9.824596054386348e-05 0.0024510470684617758 -0.006619888823479414 0.0014087993185967207 0.0035065896809101105 -0.08946961909532547 -0.0017116740345954895 -0.03385435789823532 -0.0003913843829650432 -0.004482329357415438 0.999416708946228 "x: -0.0573689, y: 10.0396, z: -0.745796" "x: 0.00319589, y: -0.00532648, z: 0.00319589"
1625518977554.3206 -0.00011018675286322832 -2.0733616111101583e-05 -8.713723946129903e-05 -1.1605451618379448e-05 -0.005854429677128792 -0.0010225275764241815 0.0029735544230788946 -0.09754474461078644 -0.009717132896184921 -0.03383041173219681 -0.00041331216925755143 -0.004471731372177601 0.9994175434112549 "x: -0.0573689, y: 10.0396, z: -0.764919" "x: -0.0010653, y: 0.00745708, z: 0.00213059"
1625518977654.247 -0.00010742681479314342 -0.00012559289461933076 3.170461059198715e-05 0.00018302450189366937 -0.005304287187755108 0.0024609616957604885 0.004197379108518362 -0.05319208651781082 0.025516929104924202 -0.033856868743896484 -0.0003826803877018392 -0.0045057800598442554 0.9994165301322937 "x: -0.0573689, y: 10.0396, z: -0.764919" "x: -0.0010653, y: 0, z: 0.00319589"
1625518977754.1733 4.077723860973492e-05 9.229375427821651e-05 8.662683285365347e-06 0.0019692396745085716 -0.0050682686269283295 0.0003464090987108648 0.003944173455238342 -0.022500697523355484 0.007676192559301853 -0.033844348043203354 -0.00039090579957701266 -0.0044877175241708755 0.9994169473648071 "x: -0.0573689, y: 10.0396, z: -0.764919" "x: -0.0010653, y: 0.0010653, z: 0.00213059"
1625518977854.0999 -0.0002073676441796124 0.0001662074209889397 9.303441765950993e-05 -0.0004748137143906206 -0.004525327123701572 0.0013253175420686603 0.003920405637472868 -0.11315925419330597 0.03917086496949196 -0.03381593897938728 -0.00036724668461829424 -0.004520894959568977 0.9994178414344788 "x: -0.0573689, y: 10.0396, z: -0.764919" "x: 0, y: 0.00745708, z: 0.0010653"
1625518977959.023 0.0003386959433555603 0.00012369535397738218 0.00044405341031961143 0.00489919725805521 -0.004240364767611027 0.005191879812628031 0.0034672131296247244 -0.09199154376983643 0.027325674891471863 -0.03382570669054985 -0.0003374567022547126 -0.004484530538320541 0.9994176626205444 "x: -0.0573689, y: 10.0204, z: -0.745796" "x: 0.0010653, y: 0.00426119, z: -0.0010653"
1625518978059.041 -0.00010300028225174174 -0.0004462737124413252 -0.00028645654674619436 -0.0002463519631419331 -0.01267011184245348 -0.0019745829049497843 0.003762650303542614 -0.08591783046722412 0.030536621809005737 -0.03393310308456421 -0.00037211948074400425 -0.004499852191656828 0.9994139671325684 "x: -0.0573689, y: 10.0587, z: -0.764919" "x: 0.0010653, y: 0.00426119, z: -0.00213059"
1625518978158.9675 6.209902494447306e-05 -7.087030098773539e-05 0.00010490346903679892 0.00024466949980705976 -0.008152891881763935 0.00012710390728898346 0.0036255198065191507 -0.129579558968544 -0.01441926695406437 -0.03398507460951805 -0.0003431430086493492 -0.0045172362588346004 0.9994120597839355 "x: -0.0573689, y: 10.0396, z: -0.764919" "x: -0.00319589, y: -0.0010653, z: 0.0010653"
1625518978258.8938 -5.836166747030802e-05 -0.000291343400022015 -0.0001727819035295397 -1.9459694158285856e-05 -0.009157568216323853 -0.003008926287293434 0.004224216565489769 -0.08060409873723984 -0.002792184706777334 -0.033972613513469696 -0.00040929249371401966 -0.004541957750916481 0.9994123578071594 "x: -0.0382459, y: 10.0204, z: -0.745796" "x: 0, y: 0.0010653, z: 0.0010653"
1625518978358.8206 -0.00034905425854958594 0.0002733325818553567 0.00012997088197153062 -0.001421964494511485 -0.003457547165453434 0.0016280232230201364 0.002828901866450906 -0.037845976650714874 -0.043002914637327194 -0.033978477120399475 -0.0004625150468200445 -0.004457833711057901 0.9994125366210938 "x: -0.0573689, y: 10.0396, z: -0.784042" "x: 0.00426119, y: -0.00319589, z: -0.0010653"
1625518978463.7432 -0.0004669036134146154 -0.00039478560211136937 -0.0008902806439436972 -0.0014654147671535611 -0.010819616727530956 -0.006021527573466301 0.0036566322669386864 -0.047247856855392456 -0.05169826000928879 -0.03399123251438141 -0.0004275919636711478 -0.004495581146329641 0.999411940574646 "x: -0.0573689, y: 10.0396, z: -0.764919" "x: -0.00213059, y: 0.00319589, z: 0.0010653"
1625518978563.6697 -0.0002864624257199466 -0.00020028167637065053 -0.0003137826279271394 0.0003586497332435101 -0.007378663867712021 -0.0008135319803841412 0.0038326778449118137 -0.06396787613630295 -0.02941294014453888 -0.03398619592189789 -0.00041501567466184497 -0.004512702580541372 0.9994120001792908 "x: -0.0573689, y: 10.0396, z: -0.764919" "x: -0.00213059, y: 0.00639178, z: 0.0010653"
1625518978663.5962 -0.00012413051445037127 -0.0003059056762140244 -9.684722317615524e-05 0.0018407143652439117 -0.010103887878358364 0.0009293775074183941 -0.014465080574154854 -0.08823452889919281 0.033164236694574356 -0.0339905247092247 -0.00041612633503973484 -0.004562374670058489 0.9994116425514221 "x: -0.0573689, y: 10.0396, z: -0.764919" "x: 0.00213059, y: -0.00426119, z: 0.00426119"
1625518978763.5227 0.0005537955439649522 0.0001175154757220298 0.0009058833820745349 0.0037384158931672573 -0.005905283614993095 0.0073981205932796 0.004115551710128784 -0.06898938119411469 0.019183900207281113 -0.03405209258198738 -0.0004404599603731185 -0.004522088915109634 0.9994097352027893 "x: -0.0573689, y: 10.0396, z: -0.764919" "x: 0.00319589, y: -0.00213059, z: 0.00319589"
1625518978863.4495 -0.0006592696881853044 4.497283953242004e-05 -0.0004027201794087887 -0.004438767675310373 -0.006572246551513672 -0.0037583373486995697 0.0028533409349620342 -0.08218864351511002 -0.046738557517528534 -0.03413334861397743 -0.00047035570605657995 -0.004469186998903751 0.9994072318077087 "x: -0.0573689, y: 10.0396, z: -0.745796" "x: -0.00213059, y: 0.00639178, z: 0.00532648"
1625518978968.3726 -0.00046545168152078986 -0.0001115823833970353 -0.000416900817072019 -0.000841406115796417 -0.008169703185558319 -0.0012010844657197595 0.00324050965718925 -0.08047474920749664 0.047253429889678955 -0.03414434939622879 -0.0004425313090905547 -0.004469176754355431 0.9994068741798401 "x: -0.0573689, y: 10.0396, z: -0.764919" "x: 0.00426119, y: -0.0010653, z: -0.00319589"
1625518979068.2988 -0.0002704139333218336 0.0001733608078211546 0.00015635319869033992 -0.0015560780884698033 -0.0047345818020403385 0.0038734099362045527 0.003651841077953577 -0.08993248641490936 0.05755438655614853 -0.03414961323142052 -0.0004321634187363088 -0.0044956933706998825 0.9994065165519714 "x: -0.0573689, y: 10.0396, z: -0.764919" "x: -0.00213059, y: 0.00639178, z: 0"
1625518979168.2253 2.514125117158983e-05 -7.824458407412749e-06 0.0001959021610673517 0.001138197141699493 -0.006830042693763971 0.0025132435839623213 -0.015397186391055584 -0.02441309578716755 0.04964989423751831 -0.03415139392018318 -0.00040664730477146804 -0.0044647823087871075 0.9994066953659058 "x: -0.0382459, y: 10.0396, z: -0.764919" "x: 0, y: 0.0010653, z: -0.00213059"
1625518979268.1519 -3.3684618756524287e-06 -0.00012200338824186474 0.0001794093695934862 0.0012878493871539831 -0.007734435144811869 -1.7558340914547443e-05 0.0025379611179232597 -0.08057038486003876 -0.02707705646753311 -0.03413606435060501 -0.00044244283344596624 -0.004446869716048241 0.999407172203064 "x: -0.0573689, y: 10.0396, z: -0.764919" "x: 0, y: 0, z: -0.0010653"
1625518979373.075 6.392710929503664e-05 -0.0001448014663765207 0.00017865560948848724 0.0013937061885371804 -0.009039809927344322 0.0007297530537471175 0.0024281253572553396 -0.13538095355033875 0.05458284169435501 -0.03411579504609108 -0.0005154598038643599 -0.004447287879884243 0.9994078874588013 "x: -0.0573689, y: 10.0396, z: -0.784042" "x: -0.00319589, y: -0.00319589, z: 0"
1625518979473.0015 -0.0003380466951057315 -0.00031253474298864603 -0.00014345154340844601 -0.0018539192387834191 -0.009913908317685127 -0.0002810266159940511 0.0020536696538329124 -0.1336401253938675 -0.025975294411182404 -0.03412594273686409 -0.0005327165126800537 -0.004454546608030796 0.9994075298309326 "x: -0.0573689, y: 10.0396, z: -0.764919" "x: -0.00426119, y: 0.00213059, z: -0.0010653"
1625518979572.928 -0.0001727788767311722 -7.574791379738599e-05 -5.3573225159198046e-05 -0.00016261672135442495 -0.007060241419821978 0.0017282295739278197 -0.016509080305695534 -0.10885608196258545 0.12888281047344208 -0.034180719405412674 -0.0005065337754786015 -0.004438177216798067 0.9994057416915894 "x: -0.0382459, y: 10.0396, z: -0.764919" "x: -0.0010653, y: 0.00319589, z: -0.0010653"
1625518979672.8545 -0.0006237074267119169 -7.66388766351156e-05 -0.0004953909083269536 -0.002793204039335251 -0.006448713131248951 -0.0038321528118103743 0.0034191750455647707 -0.046690020710229874 0.059643469750881195 -0.03415240719914436 -0.0005573723465204239 -0.004454771522432566 0.9994065761566162 "x: -0.0573689, y: 10.0396, z: -0.764919" "x: 0.0010653, y: 0.00426119, z: 0.00213059"
1625518979777.7773 -0.0007724558818154037 -0.000328996276948601 -0.0005748915136791766 -0.0037358058616518974 -0.011038902215659618 -0.0012330143945291638 -0.01682220585644245 -0.153472900390625 0.0533766970038414 -0.03415508568286896 -0.0005344157689251006 -0.004466935060918331 0.9994064569473267 "x: -0.0382459, y: 10.0396, z: -0.784042" "x: -0.0010653, y: 0.00532648, z: 0.00213059"
1625518979877.704 -0.00021854012447874993 -2.5109762646025047e-05 -0.0001704257883829996 0.00212926440872252 -0.007379341404885054 0.002000267617404461 0.0032152559142559767 -0.10214469581842422 0.030639808624982834 -0.03415019437670708 -0.0004798619484063238 -0.004483303986489773 0.9994065761566162 "x: -0.0573689, y: 10.0204, z: -0.764919" "x: 0.00319589, y: 0.00639178, z: 0.00319589"
1625518979977.6309 -0.00047987568541429937 -1.7255179045605473e-05 -0.0003679260553326458 -0.0025333839002996683 -0.005872981622815132 -0.00042156127165071666 0.0035043794196099043 -0.08350778371095657 0.03778459131717682 -0.034155432134866714 -0.0004513656604103744 -0.004498077090829611 0.9994063973426819 "x: -0.0573689, y: 10.0204, z: -0.784042" "x: -0.00319589, y: 0, z: 0.00213059"
1625518980077.5576 -0.00010174626368097961 -0.0001401820918545127 5.4746808018535376e-05 0.0017289069946855307 -0.005265874322503805 0.004323489032685757 0.004634525626897812 -0.06412920355796814 0.02742527797818184 -0.03414704650640488 -0.0004539793299045414 -0.004544902592897415 0.9994063973426819 "x: -0.0573689, y: 10.0396, z: -0.745796" "x: 0.0010653, y: -0.0010653, z: 0.00319589"
1625518980177.4844 -0.00020944788411725312 -0.00023356493329629302 -0.000411027402151376 0.0005235723219811916 -0.007242915686219931 -0.004285918083041906 0.004044464789330959 -0.06978614628314972 -0.017554080113768578 -0.03411942720413208 -0.0004262862494215369 -0.004514530301094055 0.9994075298309326 "x: -0.0573689, y: 10.0204, z: -0.784042" "x: 0.00213059, y: 0, z: 0.0010653"
1625518980282.4072 -0.0005879788659512997 0.0002122521837009117 -0.000473092746688053 -0.002989454660564661 -0.001397521235048771 -0.003012145636603236 0.003734418423846364 -0.10851261019706726 -0.011902296915650368 -0.03412969037890434 -0.00036703640944324434 -0.004534048959612846 0.9994070529937744 "x: -0.0573689, y: 10.0587, z: -0.784042" "x: 0.00213059, y: 0.00213059, z: 0.00213059"
1625518980382.334 -0.0002245068026240915 -7.098641799530014e-05 -2.8749309421982616e-05 0.00042966281762346625 -0.0055928356014192104 0.0018496116390451789 0.004672754090279341 -0.07045084983110428 0.0006146804080344737 -0.03414107486605644 -0.00036048993933945894 -0.004543874878436327 0.9994066953659058 "x: -0.0573689, y: 10.0396, z: -0.764919" "x: -0.00319589, y: 0.00213059, z: 0.00319589"
1625518980482.2605 -2.141209006367717e-05 -0.0001513145980425179 7.007920066826046e-05 0.0017737094312906265 -0.0063686310313642025 0.0021151877008378506 0.004994238261133432 -0.07954683154821396 -0.019637810066342354 -0.03417691960930824 -0.00034864572808146477 -0.004585865419358015 0.9994052052497864 "x: -0.0573689, y: 10.0396, z: -0.764919" "x: 0.0010653, y: 0.0010653, z: 0.00426119"
1625518980587.1833 -9.797226084629074e-05 -0.00018789975729305297 -0.00019851411343552172 7.758373976685107e-05 -0.006914726924151182 -0.002200225368142128 0.004461355973035097 -0.11097998172044754 -0.043847981840372086 -0.03418244421482086 -0.00036256841849535704 -0.004563107620924711 0.9994051456451416 "x: -0.0573689, y: 10.0396, z: -0.745796" "x: 0.0010653, y: 0.00213059, z: 0.00852238"
1625518980687.11 -0.0004909777780994773 6.94619957357645e-05 -0.00032341681071557105 -0.002939720870926976 -0.002830826910212636 -0.001505096792243421 0.004986561369150877 -0.0825633779168129 -0.008229038678109646 -0.03416534513235092 -0.0003498582518659532 -0.004594162572175264 0.999405562877655 "x: -0.0573689, y: 10.0396, z: -0.784042" "x: 0.00213059, y: 0, z: 0.00319589"
1625518980787.0369 -5.542634244193323e-05 -0.00020357842731755227 -4.866292510996573e-05 0.002084919484332204 -0.006157202646136284 0.0013829157687723637 0.025661591440439224 -0.07771921902894974 0.02118530496954918 -0.03418417647480965 -0.0002860638778656721 -0.004640671890228987 0.999404788017273 "x: -0.0764919, y: 10.0396, z: -0.764919" "x: 0.0010653, y: -0.0010653, z: 0.00532648"
1625518980886.9636 4.0372306102653965e-05 -0.00018717053171712905 -0.00013080131611786783 0.0026542942505329847 -0.005866289604455233 -0.0011433541076257825 0.007610668893903494 -0.05603766068816185 -0.030369434505701065 -0.03418063372373581 -0.00032633222872391343 -0.004691452719271183 0.9994046688079834 "x: -0.0573689, y: 10.0396, z: -0.764919" "x: 0, y: 0.00319589, z: 0.00213059"
1625518980986.8901 8.685766806593165e-05 -0.00014260809984989464 -6.124424544395879e-05 0.003249044995754957 -0.005350996740162373 0.0007708438206464052 0.00751987611874938 -0.07871602475643158 -0.03509363532066345 -0.0342104509472847 -0.0002606114139780402 -0.00469545042142272 0.9994035959243774 "x: -0.0573689, y: 10.0396, z: -0.764919" "x: 0.00213059, y: 0.00319589, z: 0.00319589"
1625518981091.8135 -0.00012517427967395633 -0.00034785596653819084 -6.72966634738259e-05 0.0006842499133199453 -0.009190147742629051 0.002635244745761156 -0.010068995878100395 -0.10111207515001297 0.03418543562293053 -0.03421594947576523 -0.0002652097900863737 -0.004777953960001469 0.9994029998779297 "x: -0.0382459, y: 10.0396, z: -0.764919" "x: 0.00213059, y: -0.00319589, z: 0.00213059"
1625518981191.74 -0.0004746795166283846 -7.028538675513119e-05 -0.00018681854999158531 -0.0019653704948723316 -0.005423199385404587 0.0016147884307429194 0.008563317358493805 -0.09147720783948898 0.04992371052503586 -0.03424302488565445 -0.0003392847429495305 -0.004745905287563801 0.9994022250175476 "x: -0.0573689, y: 10.0396, z: -0.784042" "x: -0.00426119, y: 0.0010653, z: 0.0010653"
1625518981291.6667 9.575113654136658e-05 -0.000165543460752815 -3.3297648769803345e-05 0.0033628507517278194 -0.005523212719708681 0.00211128406226635 -0.011034294031560421 -0.0621618926525116 0.04844650626182556 -0.034307096153497696 -0.00031015099375508726 -0.004709731321781874 0.99940025806427 "x: -0.0382459, y: 10.0587, z: -0.784042" "x: 0.00319589, y: -0.00426119, z: 0.00532648"
1625518981391.5938 -7.634649227838963e-05 3.862130324705504e-05 0.00032252565142698586 -0.0005170581280253828 -0.005529897753149271 0.0039043952710926533 0.007326771505177021 -0.1261102706193924 0.06827086955308914 -0.03429988771677017 -0.0003281795943621546 -0.004703038837760687 0.9994005560874939 "x: -0.0573689, y: 10.0396, z: -0.784042" "x: -0.0010653, y: 0.00852238, z: 0.00426119"
1625518981496.5166 8.178610733011737e-05 -0.00020581824355758727 -0.0001376654690830037 0.0016793364193290472 -0.007321259472519159 -0.003716213395819068 0.00661793677136302 -0.12232601642608643 -0.05901024863123894 -0.034249093383550644 -0.00031866543577052653 -0.0046946643851697445 0.9994022250175476 "x: -0.0573689, y: 10.0396, z: -0.784042" "x: 0.00213059, y: -0.00532648, z: 0"
1625518981596.7466 -0.0003812304057646543 -4.269260534783825e-05 -0.00021335894416552037 -0.0013359306612983346 -0.0020526526495814323 -0.0014127696631476283 0.008164806291460991 -0.029873009771108627 -0.013470427133142948 -0.03428170084953308 -0.0002643114421516657 -0.004721290431916714 0.9994010925292969 "x: -0.0573689, y: 10.0396, z: -0.784042" "x: -0.00213059, y: 0.00426119, z: 0.00319589"
